
TASKTYPE,ECCMAGNITUDE,TRIAL,RT,CUE,CUEVALIDITY,STIMCOLOR,STIMLOC,RESPONSE,CORRECTRESPONSE,ACCURACY,STIMWAITTIME,TAG,RULES
ENDOATTNTASK,7 DVA,1,514,>,VALID 80%,Green,7,J,J,CORRECT,710,Draft,endo-atten.prs
ENDOATTNTASK,7 DVA,2,432,+,NEUTRAL 50%,Yellow,-7,J,J,CORRECT,768,Draft,endo-atten.prs
ENDOATTNTASK,7 DVA,3,467,>,VALID 80%,Red,7,F,F,CORRECT,1033,Draft,endo-atten.prs
ENDOATTNTASK,7 DVA,4,467,>,VALID 80%,Green,7,J,J,CORRECT,933,Draft,endo-atten.prs
ENDOATTNTASK,7 DVA,5,494,+,NEUTRAL 50%,Blue,-7,F,F,CORRECT,1106,Draft,endo-atten.prs
ENDOATTNTASK,7 DVA,6,389,+,NEUTRAL 50%,Red,7,F,F,CORRECT,1061,Draft,endo-atten.prs
ENDOATTNTASK,7 DVA,7,429,+,NEUTRAL 50%,Blue,-7,F,F,CORRECT,721,Draft,endo-atten.prs
ENDOATTNTASK,7 DVA,8,487,<,VALID 80%,Green,-7,J,J,CORRECT,1263,Draft,endo-atten.prs
ENDOATTNTASK,7 DVA,9,471,>,VALID 80%,Red,7,F,F,CORRECT,1279,Draft,endo-atten.prs
ENDOATTNTASK,7 DVA,10,414,+,NEUTRAL 50%,Red,7,F,F,CORRECT,1136,Draft,endo-atten.prs
ENDOATTNTASK,7 DVA,11,513,<,INVALID 20%,Yellow,7,J,J,CORRECT,587,Draft,endo-atten.prs
ENDOATTNTASK,7 DVA,12,494,+,NEUTRAL 50%,Blue,-7,F,F,CORRECT,806,Draft,endo-atten.prs
ENDOATTNTASK,7 DVA,13,453,>,VALID 80%,Green,7,J,J,CORRECT,947,Draft,endo-atten.prs
ENDOATTNTASK,7 DVA,14,492,<,VALID 80%,Blue,-7,F,F,CORRECT,508,Draft,endo-atten.prs
ENDOATTNTASK,7 DVA,15,448,>,VALID 80%,Yellow,7,J,J,CORRECT,952,Draft,endo-atten.prs
ENDOATTNTASK,7 DVA,16,471,>,VALID 80%,Blue,7,F,F,CORRECT,629,Draft,endo-atten.prs
ENDOATTNTASK,7 DVA,17,397,+,NEUTRAL 50%,Blue,7,F,F,CORRECT,653,Draft,endo-atten.prs
ENDOATTNTASK,7 DVA,18,392,+,NEUTRAL 50%,Blue,-7,F,F,CORRECT,558,Draft,endo-atten.prs
ENDOATTNTASK,7 DVA,19,406,+,NEUTRAL 50%,Red,-7,F,F,CORRECT,894,Draft,endo-atten.prs
ENDOATTNTASK,7 DVA,20,468,>,VALID 80%,Green,7,J,J,CORRECT,782,Draft,endo-atten.prs
ENDOATTNTASK,7 DVA,21,399,+,NEUTRAL 50%,Green,7,J,J,CORRECT,851,Draft,endo-atten.prs
ENDOATTNTASK,7 DVA,22,439,>,INVALID 20%,Yellow,-7,J,J,CORRECT,961,Draft,endo-atten.prs
ENDOATTNTASK,7 DVA,23,451,>,INVALID 20%,Yellow,-7,J,J,CORRECT,899,Draft,endo-atten.prs
ENDOATTNTASK,7 DVA,24,462,>,VALID 80%,Blue,7,F,F,CORRECT,638,Draft,endo-atten.prs
ENDOATTNTASK,7 DVA,25,469,<,VALID 80%,Green,-7,J,J,CORRECT,631,Draft,endo-atten.prs
ENDOATTNTASK,7 DVA,26,418,+,NEUTRAL 50%,Green,-7,J,J,CORRECT,1132,Draft,endo-atten.prs
ENDOATTNTASK,7 DVA,27,411,+,NEUTRAL 50%,Yellow,7,J,J,CORRECT,939,Draft,endo-atten.prs
ENDOATTNTASK,7 DVA,28,369,>,VALID 80%,Green,7,J,J,CORRECT,781,Draft,endo-atten.prs
ENDOATTNTASK,7 DVA,29,368,>,VALID 80%,Green,7,J,J,CORRECT,1232,Draft,endo-atten.prs
ENDOATTNTASK,7 DVA,30,380,<,VALID 80%,Yellow,-7,J,J,CORRECT,820,Draft,endo-atten.prs
ENDOATTNTASK,7 DVA,31,416,+,NEUTRAL 50%,Yellow,-7,J,J,CORRECT,534,Draft,endo-atten.prs
ENDOATTNTASK,7 DVA,32,375,>,VALID 80%,Yellow,7,J,J,CORRECT,1275,Draft,endo-atten.prs
ENDOATTNTASK,7 DVA,33,536,+,NEUTRAL 50%,Blue,-7,F,F,CORRECT,1164,Draft,endo-atten.prs
ENDOATTNTASK,7 DVA,34,463,>,VALID 80%,Yellow,7,J,J,CORRECT,1287,Draft,endo-atten.prs
ENDOATTNTASK,7 DVA,35,385,>,VALID 80%,Green,7,J,J,CORRECT,565,Draft,endo-atten.prs
ENDOATTNTASK,7 DVA,36,537,>,INVALID 20%,Red,-7,F,F,CORRECT,663,Draft,endo-atten.prs
ENDOATTNTASK,7 DVA,37,493,+,NEUTRAL 50%,Green,7,J,J,CORRECT,657,Draft,endo-atten.prs
ENDOATTNTASK,7 DVA,38,478,<,VALID 80%,Red,-7,F,F,CORRECT,572,Draft,endo-atten.prs
ENDOATTNTASK,7 DVA,39,337,>,VALID 80%,Blue,7,F,F,CORRECT,913,Draft,endo-atten.prs
ENDOATTNTASK,7 DVA,40,473,+,NEUTRAL 50%,Green,7,J,J,CORRECT,977,Draft,endo-atten.prs
ENDOATTNTASK,7 DVA,41,392,<,VALID 80%,Green,-7,J,J,CORRECT,1158,Draft,endo-atten.prs
ENDOATTNTASK,7 DVA,42,398,<,VALID 80%,Green,-7,J,J,CORRECT,1002,Draft,endo-atten.prs
ENDOATTNTASK,7 DVA,43,414,+,NEUTRAL 50%,Green,-7,J,J,CORRECT,836,Draft,endo-atten.prs
ENDOATTNTASK,7 DVA,44,400,<,VALID 80%,Yellow,-7,J,J,CORRECT,1150,Draft,endo-atten.prs
ENDOATTNTASK,7 DVA,45,421,+,NEUTRAL 50%,Green,-7,J,J,CORRECT,879,Draft,endo-atten.prs
ENDOATTNTASK,7 DVA,46,479,>,VALID 80%,Red,7,F,F,CORRECT,871,Draft,endo-atten.prs
ENDOATTNTASK,7 DVA,47,451,<,VALID 80%,Yellow,-7,J,J,CORRECT,949,Draft,endo-atten.prs
ENDOATTNTASK,7 DVA,48,429,+,NEUTRAL 50%,Green,-7,J,J,CORRECT,1021,Draft,endo-atten.prs
ENDOATTNTASK,7 DVA,49,496,+,NEUTRAL 50%,Red,-7,F,F,CORRECT,504,Draft,endo-atten.prs
ENDOATTNTASK,7 DVA,50,529,+,NEUTRAL 50%,Green,-7,J,J,CORRECT,671,Draft,endo-atten.prs
ENDOATTNTASK,7 DVA,51,460,<,VALID 80%,Blue,-7,F,F,CORRECT,1090,Draft,endo-atten.prs
ENDOATTNTASK,7 DVA,52,462,>,VALID 80%,Green,7,J,J,CORRECT,1238,Draft,endo-atten.prs
ENDOATTNTASK,7 DVA,53,503,+,NEUTRAL 50%,Blue,-7,F,F,CORRECT,1047,Draft,endo-atten.prs
ENDOATTNTASK,7 DVA,54,495,<,VALID 80%,Green,-7,J,J,CORRECT,905,Draft,endo-atten.prs
ENDOATTNTASK,7 DVA,55,422,+,NEUTRAL 50%,Green,-7,J,J,CORRECT,1278,Draft,endo-atten.prs
ENDOATTNTASK,7 DVA,56,383,>,VALID 80%,Green,7,J,J,CORRECT,817,Draft,endo-atten.prs
ENDOATTNTASK,7 DVA,57,487,<,VALID 80%,Blue,-7,F,F,CORRECT,863,Draft,endo-atten.prs
ENDOATTNTASK,7 DVA,58,457,>,VALID 80%,Green,7,J,J,CORRECT,1093,Draft,endo-atten.prs
ENDOATTNTASK,7 DVA,59,456,>,VALID 80%,Red,7,F,F,CORRECT,644,Draft,endo-atten.prs
ENDOATTNTASK,7 DVA,60,389,<,VALID 80%,Blue,-7,F,F,CORRECT,561,Draft,endo-atten.prs
ENDOATTNTASK,7 DVA,61,345,>,VALID 80%,Blue,7,F,F,CORRECT,1255,Draft,endo-atten.prs
ENDOATTNTASK,7 DVA,62,349,>,VALID 80%,Red,7,F,F,CORRECT,801,Draft,endo-atten.prs
ENDOATTNTASK,7 DVA,63,418,+,NEUTRAL 50%,Red,7,F,F,CORRECT,682,Draft,endo-atten.prs
ENDOATTNTASK,7 DVA,64,487,+,NEUTRAL 50%,Green,7,J,J,CORRECT,1263,Draft,endo-atten.prs
ENDOATTNTASK,7 DVA,65,400,+,NEUTRAL 50%,Green,-7,J,J,CORRECT,1100,Draft,endo-atten.prs
ENDOATTNTASK,7 DVA,66,478,>,VALID 80%,Red,7,F,F,CORRECT,822,Draft,endo-atten.prs
ENDOATTNTASK,7 DVA,67,387,<,VALID 80%,Blue,-7,F,F,CORRECT,663,Draft,endo-atten.prs
ENDOATTNTASK,7 DVA,68,478,<,VALID 80%,Green,-7,J,J,CORRECT,1272,Draft,endo-atten.prs
ENDOATTNTASK,7 DVA,69,521,+,NEUTRAL 50%,Blue,-7,F,F,CORRECT,1079,Draft,endo-atten.prs
ENDOATTNTASK,7 DVA,70,468,<,VALID 80%,Yellow,-7,J,J,CORRECT,982,Draft,endo-atten.prs
ENDOATTNTASK,7 DVA,71,397,+,NEUTRAL 50%,Yellow,-7,J,J,CORRECT,503,Draft,endo-atten.prs
ENDOATTNTASK,7 DVA,72,508,+,NEUTRAL 50%,Blue,-7,F,F,CORRECT,1042,Draft,endo-atten.prs
ENDOATTNTASK,7 DVA,73,456,>,INVALID 20%,Blue,-7,F,F,CORRECT,1044,Draft,endo-atten.prs
ENDOATTNTASK,7 DVA,74,521,<,INVALID 20%,Yellow,7,J,J,CORRECT,979,Draft,endo-atten.prs
ENDOATTNTASK,7 DVA,75,488,<,VALID 80%,Red,-7,F,F,CORRECT,662,Draft,endo-atten.prs
ENDOATTNTASK,7 DVA,76,484,<,VALID 80%,Yellow,-7,J,J,CORRECT,1266,Draft,endo-atten.prs
ENDOATTNTASK,7 DVA,77,478,+,NEUTRAL 50%,Red,7,F,F,CORRECT,672,Draft,endo-atten.prs
ENDOATTNTASK,7 DVA,78,426,+,NEUTRAL 50%,Blue,-7,F,F,CORRECT,674,Draft,endo-atten.prs
ENDOATTNTASK,7 DVA,79,382,>,VALID 80%,Red,7,F,F,CORRECT,1168,Draft,endo-atten.prs
ENDOATTNTASK,7 DVA,80,384,>,VALID 80%,Red,7,F,F,CORRECT,866,Draft,endo-atten.prs
ENDOATTNTASK,7 DVA,81,520,+,NEUTRAL 50%,Yellow,-7,J,J,CORRECT,830,Draft,endo-atten.prs
ENDOATTNTASK,7 DVA,82,452,>,VALID 80%,Red,7,F,F,CORRECT,848,Draft,endo-atten.prs
ENDOATTNTASK,7 DVA,83,395,+,NEUTRAL 50%,Blue,7,F,F,CORRECT,1005,Draft,endo-atten.prs
ENDOATTNTASK,7 DVA,84,537,<,INVALID 20%,Green,7,J,J,CORRECT,563,Draft,endo-atten.prs
ENDOATTNTASK,7 DVA,85,374,>,VALID 80%,Green,7,J,J,CORRECT,876,Draft,endo-atten.prs
ENDOATTNTASK,7 DVA,86,367,>,VALID 80%,Green,7,J,J,CORRECT,1183,Draft,endo-atten.prs
ENDOATTNTASK,7 DVA,87,338,>,VALID 80%,Green,7,J,J,CORRECT,1062,Draft,endo-atten.prs
ENDOATTNTASK,7 DVA,88,355,<,VALID 80%,Yellow,-7,J,J,CORRECT,645,Draft,endo-atten.prs
ENDOATTNTASK,7 DVA,89,420,+,NEUTRAL 50%,Green,-7,J,J,CORRECT,1080,Draft,endo-atten.prs
ENDOATTNTASK,7 DVA,90,360,<,VALID 80%,Green,-7,J,J,CORRECT,690,Draft,endo-atten.prs
ENDOATTNTASK,7 DVA,91,456,>,INVALID 20%,Yellow,-7,J,J,CORRECT,1194,Draft,endo-atten.prs
ENDOATTNTASK,7 DVA,92,360,<,VALID 80%,Green,-7,J,J,CORRECT,890,Draft,endo-atten.prs
ENDOATTNTASK,7 DVA,93,368,>,VALID 80%,Green,7,J,J,CORRECT,632,Draft,endo-atten.prs
ENDOATTNTASK,7 DVA,94,480,<,VALID 80%,Blue,-7,F,F,CORRECT,620,Draft,endo-atten.prs
ENDOATTNTASK,7 DVA,95,477,+,NEUTRAL 50%,Green,7,J,J,CORRECT,973,Draft,endo-atten.prs
ENDOATTNTASK,7 DVA,96,481,>,VALID 80%,Red,7,F,F,CORRECT,669,Draft,endo-atten.prs
ENDOATTNTASK,7 DVA,97,426,+,NEUTRAL 50%,Red,-7,F,F,CORRECT,624,Draft,endo-atten.prs
ENDOATTNTASK,7 DVA,98,456,>,INVALID 20%,Red,-7,F,F,CORRECT,794,Draft,endo-atten.prs
ENDOATTNTASK,7 DVA,99,398,+,NEUTRAL 50%,Blue,7,F,F,CORRECT,552,Draft,endo-atten.prs
ENDOATTNTASK,7 DVA,100,358,>,VALID 80%,Blue,7,F,F,CORRECT,742,Draft,endo-atten.prs
ENDOATTNTASK,7 DVA,101,442,>,INVALID 20%,Blue,-7,F,F,CORRECT,1058,Draft,endo-atten.prs
ENDOATTNTASK,7 DVA,102,448,>,VALID 80%,Yellow,7,J,J,CORRECT,952,Draft,endo-atten.prs
ENDOATTNTASK,7 DVA,103,433,<,INVALID 20%,Yellow,7,J,J,CORRECT,867,Draft,endo-atten.prs
ENDOATTNTASK,7 DVA,104,491,+,NEUTRAL 50%,Blue,7,F,F,CORRECT,509,Draft,endo-atten.prs
ENDOATTNTASK,7 DVA,105,500,+,NEUTRAL 50%,Yellow,7,J,J,CORRECT,950,Draft,endo-atten.prs
ENDOATTNTASK,7 DVA,106,468,>,VALID 80%,Red,7,F,F,CORRECT,1082,Draft,endo-atten.prs
ENDOATTNTASK,7 DVA,107,471,>,VALID 80%,Yellow,7,J,J,CORRECT,879,Draft,endo-atten.prs
ENDOATTNTASK,7 DVA,108,370,>,VALID 80%,Yellow,7,J,J,CORRECT,1080,Draft,endo-atten.prs
ENDOATTNTASK,7 DVA,109,374,>,VALID 80%,Green,7,J,J,CORRECT,526,Draft,endo-atten.prs
ENDOATTNTASK,7 DVA,110,523,<,INVALID 20%,Blue,7,F,F,CORRECT,827,Draft,endo-atten.prs
ENDOATTNTASK,7 DVA,111,523,<,INVALID 20%,Yellow,7,J,J,CORRECT,527,Draft,endo-atten.prs
ENDOATTNTASK,7 DVA,112,393,<,VALID 80%,Yellow,-7,J,J,CORRECT,1257,Draft,endo-atten.prs
ENDOATTNTASK,7 DVA,113,384,>,VALID 80%,Yellow,7,J,J,CORRECT,766,Draft,endo-atten.prs
ENDOATTNTASK,7 DVA,114,547,>,INVALID 20%,Blue,-7,F,F,CORRECT,853,Draft,endo-atten.prs
ENDOATTNTASK,7 DVA,115,485,<,VALID 80%,Yellow,-7,J,J,CORRECT,1015,Draft,endo-atten.prs
ENDOATTNTASK,7 DVA,116,349,>,VALID 80%,Yellow,7,J,J,CORRECT,1051,Draft,endo-atten.prs
ENDOATTNTASK,7 DVA,117,452,>,VALID 80%,Blue,7,F,F,CORRECT,598,Draft,endo-atten.prs
ENDOATTNTASK,7 DVA,118,368,>,VALID 80%,Red,7,F,F,CORRECT,932,Draft,endo-atten.prs
ENDOATTNTASK,7 DVA,119,461,<,VALID 80%,Yellow,-7,J,J,CORRECT,939,Draft,endo-atten.prs
ENDOATTNTASK,7 DVA,120,374,<,VALID 80%,Green,-7,J,J,CORRECT,1076,Draft,endo-atten.prs
ENDOATTNTASK,7 DVA,121,395,<,INVALID 20%,Yellow,7,J,J,CORRECT,805,Draft,endo-atten.prs
ENDOATTNTASK,7 DVA,122,407,+,NEUTRAL 50%,Yellow,7,J,J,CORRECT,743,Draft,endo-atten.prs
ENDOATTNTASK,7 DVA,123,408,+,NEUTRAL 50%,Green,-7,J,J,CORRECT,892,Draft,endo-atten.prs
ENDOATTNTASK,7 DVA,124,463,<,VALID 80%,Red,-7,F,F,CORRECT,687,Draft,endo-atten.prs
ENDOATTNTASK,7 DVA,125,379,+,NEUTRAL 50%,Blue,7,F,F,CORRECT,771,Draft,endo-atten.prs
ENDOATTNTASK,7 DVA,126,373,<,VALID 80%,Blue,-7,F,F,CORRECT,977,Draft,endo-atten.prs
ENDOATTNTASK,7 DVA,127,559,>,INVALID 20%,Green,-7,J,J,CORRECT,541,Draft,endo-atten.prs
ENDOATTNTASK,7 DVA,128,416,<,INVALID 20%,Green,7,J,J,CORRECT,1184,Draft,endo-atten.prs
ENDOATTNTASK,7 DVA,129,430,<,INVALID 20%,Yellow,7,J,J,CORRECT,720,Draft,endo-atten.prs
ENDOATTNTASK,7 DVA,130,475,>,VALID 80%,Red,7,F,F,CORRECT,1125,Draft,endo-atten.prs
ENDOATTNTASK,7 DVA,131,487,<,VALID 80%,Yellow,-7,J,J,CORRECT,513,Draft,endo-atten.prs
ENDOATTNTASK,7 DVA,132,351,>,VALID 80%,Yellow,7,J,J,CORRECT,749,Draft,endo-atten.prs
ENDOATTNTASK,7 DVA,133,349,>,VALID 80%,Yellow,7,J,J,CORRECT,1151,Draft,endo-atten.prs
ENDOATTNTASK,7 DVA,134,347,>,VALID 80%,Green,7,J,J,CORRECT,603,Draft,endo-atten.prs
ENDOATTNTASK,7 DVA,135,417,+,NEUTRAL 50%,Yellow,7,J,J,CORRECT,583,Draft,endo-atten.prs
ENDOATTNTASK,7 DVA,136,508,+,NEUTRAL 50%,Red,7,F,F,CORRECT,992,Draft,endo-atten.prs
ENDOATTNTASK,7 DVA,137,499,<,VALID 80%,Yellow,-7,J,J,CORRECT,801,Draft,endo-atten.prs
ENDOATTNTASK,7 DVA,138,432,<,INVALID 20%,Green,7,J,J,CORRECT,1018,Draft,endo-atten.prs
ENDOATTNTASK,7 DVA,139,427,+,NEUTRAL 50%,Green,-7,J,J,CORRECT,973,Draft,endo-atten.prs
ENDOATTNTASK,7 DVA,140,500,<,INVALID 20%,Blue,7,F,F,CORRECT,700,Draft,endo-atten.prs
ENDOATTNTASK,7 DVA,141,429,+,NEUTRAL 50%,Red,-7,F,F,CORRECT,1071,Draft,endo-atten.prs
ENDOATTNTASK,7 DVA,142,402,+,NEUTRAL 50%,Red,-7,F,F,CORRECT,648,Draft,endo-atten.prs
ENDOATTNTASK,7 DVA,143,496,<,VALID 80%,Yellow,-7,J,J,CORRECT,654,Draft,endo-atten.prs
ENDOATTNTASK,7 DVA,144,447,>,VALID 80%,Red,7,F,F,CORRECT,753,Draft,endo-atten.prs
ENDOATTNTASK,7 DVA,145,421,+,NEUTRAL 50%,Red,7,F,F,CORRECT,1029,Draft,endo-atten.prs
ENDOATTNTASK,7 DVA,146,372,<,VALID 80%,Blue,-7,F,F,CORRECT,1128,Draft,endo-atten.prs
ENDOATTNTASK,7 DVA,147,456,>,VALID 80%,Yellow,7,J,J,CORRECT,644,Draft,endo-atten.prs
ENDOATTNTASK,7 DVA,148,481,<,VALID 80%,Blue,-7,F,F,CORRECT,519,Draft,endo-atten.prs
ENDOATTNTASK,7 DVA,149,476,+,NEUTRAL 50%,Yellow,7,J,J,CORRECT,1274,Draft,endo-atten.prs
ENDOATTNTASK,7 DVA,150,555,>,INVALID 20%,Red,-7,F,F,CORRECT,1195,Draft,endo-atten.prs
ENDOATTNTASK,7 DVA,151,520,+,NEUTRAL 50%,Yellow,7,J,J,CORRECT,680,Draft,endo-atten.prs
ENDOATTNTASK,7 DVA,152,516,+,NEUTRAL 50%,Red,-7,F,F,CORRECT,934,Draft,endo-atten.prs
ENDOATTNTASK,7 DVA,153,436,+,NEUTRAL 50%,Blue,-7,F,F,CORRECT,1214,Draft,endo-atten.prs
ENDOATTNTASK,7 DVA,154,419,+,NEUTRAL 50%,Red,7,F,F,CORRECT,781,Draft,endo-atten.prs
ENDOATTNTASK,7 DVA,155,366,<,VALID 80%,Blue,-7,F,F,CORRECT,534,Draft,endo-atten.prs
ENDOATTNTASK,7 DVA,156,344,>,VALID 80%,Blue,7,F,F,CORRECT,956,Draft,endo-atten.prs
ENDOATTNTASK,7 DVA,157,469,<,VALID 80%,Green,-7,J,J,CORRECT,731,Draft,endo-atten.prs
ENDOATTNTASK,7 DVA,158,421,+,NEUTRAL 50%,Green,7,J,J,CORRECT,1029,Draft,endo-atten.prs
ENDOATTNTASK,7 DVA,159,364,>,VALID 80%,Green,7,J,J,CORRECT,1136,Draft,endo-atten.prs
ENDOATTNTASK,7 DVA,160,542,>,INVALID 20%,Red,-7,F,F,CORRECT,758,Draft,endo-atten.prs
ENDOATTNTASK,7 DVA,161,394,<,VALID 80%,Blue,-7,F,F,CORRECT,656,Draft,endo-atten.prs
ENDOATTNTASK,7 DVA,162,516,+,NEUTRAL 50%,Green,7,J,J,CORRECT,934,Draft,endo-atten.prs
ENDOATTNTASK,7 DVA,163,415,+,NEUTRAL 50%,Yellow,7,J,J,CORRECT,1285,Draft,endo-atten.prs
ENDOATTNTASK,7 DVA,164,497,<,INVALID 20%,Blue,7,F,F,CORRECT,653,Draft,endo-atten.prs
ENDOATTNTASK,7 DVA,165,357,>,VALID 80%,Red,7,F,F,CORRECT,1243,Draft,endo-atten.prs
ENDOATTNTASK,7 DVA,166,494,<,VALID 80%,Green,-7,J,J,CORRECT,656,Draft,endo-atten.prs
ENDOATTNTASK,7 DVA,167,441,>,VALID 80%,Blue,7,F,F,CORRECT,1159,Draft,endo-atten.prs
ENDOATTNTASK,7 DVA,168,533,<,INVALID 20%,Green,7,J,J,CORRECT,567,Draft,endo-atten.prs
ENDOATTNTASK,7 DVA,169,455,<,VALID 80%,Blue,-7,F,F,CORRECT,1095,Draft,endo-atten.prs
ENDOATTNTASK,7 DVA,170,495,+,NEUTRAL 50%,Green,-7,J,J,CORRECT,905,Draft,endo-atten.prs
ENDOATTNTASK,7 DVA,171,486,<,VALID 80%,Blue,-7,F,F,CORRECT,714,Draft,endo-atten.prs
ENDOATTNTASK,7 DVA,172,433,>,INVALID 20%,Blue,-7,F,F,CORRECT,1267,Draft,endo-atten.prs
ENDOATTNTASK,7 DVA,173,488,+,NEUTRAL 50%,Green,7,J,J,CORRECT,912,Draft,endo-atten.prs
ENDOATTNTASK,7 DVA,174,406,+,NEUTRAL 50%,Green,-7,J,J,CORRECT,1094,Draft,endo-atten.prs
ENDOATTNTASK,7 DVA,175,430,>,INVALID 20%,Green,-7,J,J,CORRECT,1270,Draft,endo-atten.prs
ENDOATTNTASK,7 DVA,176,367,>,VALID 80%,Green,7,J,J,CORRECT,583,Draft,endo-atten.prs
ENDOATTNTASK,7 DVA,177,546,>,INVALID 20%,Blue,-7,F,F,CORRECT,804,Draft,endo-atten.prs
ENDOATTNTASK,7 DVA,178,423,+,NEUTRAL 50%,Red,-7,F,F,CORRECT,577,Draft,endo-atten.prs
ENDOATTNTASK,7 DVA,179,380,+,NEUTRAL 50%,Red,7,F,F,CORRECT,1070,Draft,endo-atten.prs
ENDOATTNTASK,7 DVA,180,480,+,NEUTRAL 50%,Yellow,7,J,J,CORRECT,970,Draft,endo-atten.prs
ENDOATTNTASK,7 DVA,181,499,+,NEUTRAL 50%,Blue,-7,F,F,CORRECT,551,Draft,endo-atten.prs
ENDOATTNTASK,7 DVA,182,460,<,VALID 80%,Green,-7,J,J,CORRECT,690,Draft,endo-atten.prs
ENDOATTNTASK,7 DVA,183,493,+,NEUTRAL 50%,Red,7,F,F,CORRECT,607,Draft,endo-atten.prs
ENDOATTNTASK,7 DVA,184,476,<,VALID 80%,Yellow,-7,J,J,CORRECT,1024,Draft,endo-atten.prs
ENDOATTNTASK,7 DVA,185,547,>,INVALID 20%,Red,-7,F,F,CORRECT,1203,Draft,endo-atten.prs
ENDOATTNTASK,7 DVA,186,514,<,INVALID 20%,Green,7,J,J,CORRECT,886,Draft,endo-atten.prs
ENDOATTNTASK,7 DVA,187,502,+,NEUTRAL 50%,Blue,-7,F,F,CORRECT,598,Draft,endo-atten.prs
ENDOATTNTASK,7 DVA,188,493,<,VALID 80%,Yellow,-7,J,J,CORRECT,607,Draft,endo-atten.prs
ENDOATTNTASK,7 DVA,189,444,>,VALID 80%,Blue,7,F,F,CORRECT,706,Draft,endo-atten.prs
ENDOATTNTASK,7 DVA,190,401,+,NEUTRAL 50%,Red,-7,F,F,CORRECT,649,Draft,endo-atten.prs
ENDOATTNTASK,7 DVA,191,420,+,NEUTRAL 50%,Blue,-7,F,F,CORRECT,980,Draft,endo-atten.prs
ENDOATTNTASK,7 DVA,192,476,+,NEUTRAL 50%,Green,7,J,J,CORRECT,774,Draft,endo-atten.prs
ENDOATTNTASK,7 DVA,193,455,>,VALID 80%,Blue,7,F,F,CORRECT,1245,Draft,endo-atten.prs
ENDOATTNTASK,7 DVA,194,360,<,VALID 80%,Red,-7,F,F,CORRECT,1140,Draft,endo-atten.prs
ENDOATTNTASK,7 DVA,195,501,+,NEUTRAL 50%,Yellow,7,J,J,CORRECT,1149,Draft,endo-atten.prs
ENDOATTNTASK,7 DVA,196,373,<,VALID 80%,Yellow,-7,J,J,CORRECT,1027,Draft,endo-atten.prs
ENDOATTNTASK,7 DVA,197,445,>,VALID 80%,Red,7,F,F,CORRECT,655,Draft,endo-atten.prs
ENDOATTNTASK,7 DVA,198,489,<,VALID 80%,Yellow,-7,J,J,CORRECT,1061,Draft,endo-atten.prs
ENDOATTNTASK,7 DVA,199,557,>,INVALID 20%,Blue,-7,F,F,CORRECT,593,Draft,endo-atten.prs
ENDOATTNTASK,7 DVA,200,363,<,VALID 80%,Red,-7,F,F,CORRECT,537,Draft,endo-atten.prs
ENDOATTNTASK,7 DVA,201,476,<,VALID 80%,Green,-7,J,J,CORRECT,724,Draft,endo-atten.prs
ENDOATTNTASK,7 DVA,202,494,<,VALID 80%,Blue,-7,F,F,CORRECT,906,Draft,endo-atten.prs
ENDOATTNTASK,7 DVA,203,512,<,INVALID 20%,Yellow,7,J,J,CORRECT,588,Draft,endo-atten.prs
ENDOATTNTASK,7 DVA,204,393,<,VALID 80%,Green,-7,J,J,CORRECT,1157,Draft,endo-atten.prs
ENDOATTNTASK,7 DVA,205,420,<,INVALID 20%,Yellow,7,J,J,CORRECT,680,Draft,endo-atten.prs
ENDOATTNTASK,7 DVA,206,541,<,INVALID 20%,Red,7,F,F,CORRECT,1059,Draft,endo-atten.prs
ENDOATTNTASK,7 DVA,207,349,>,VALID 80%,Red,7,F,F,CORRECT,601,Draft,endo-atten.prs
ENDOATTNTASK,7 DVA,208,364,<,VALID 80%,Blue,-7,F,F,CORRECT,1186,Draft,endo-atten.prs
ENDOATTNTASK,7 DVA,209,490,<,VALID 80%,Yellow,-7,J,J,CORRECT,660,Draft,endo-atten.prs
ENDOATTNTASK,7 DVA,210,490,+,NEUTRAL 50%,Red,-7,F,F,CORRECT,1110,Draft,endo-atten.prs
ENDOATTNTASK,7 DVA,211,512,<,INVALID 20%,Yellow,7,J,J,CORRECT,688,Draft,endo-atten.prs
ENDOATTNTASK,7 DVA,212,399,<,INVALID 20%,Yellow,7,J,J,CORRECT,1201,Draft,endo-atten.prs
ENDOATTNTASK,7 DVA,213,401,+,NEUTRAL 50%,Green,7,J,J,CORRECT,1249,Draft,endo-atten.prs
ENDOATTNTASK,7 DVA,214,443,<,INVALID 20%,Yellow,7,J,J,CORRECT,757,Draft,endo-atten.prs
ENDOATTNTASK,7 DVA,215,420,+,NEUTRAL 50%,Yellow,7,J,J,CORRECT,630,Draft,endo-atten.prs
ENDOATTNTASK,7 DVA,216,385,+,NEUTRAL 50%,Yellow,7,J,J,CORRECT,1015,Draft,endo-atten.prs
ENDOATTNTASK,7 DVA,217,528,+,NEUTRAL 50%,Red,-7,F,F,CORRECT,1122,Draft,endo-atten.prs
ENDOATTNTASK,7 DVA,218,395,<,VALID 80%,Blue,-7,F,F,CORRECT,605,Draft,endo-atten.prs
ENDOATTNTASK,7 DVA,219,457,<,VALID 80%,Yellow,-7,J,J,CORRECT,793,Draft,endo-atten.prs
ENDOATTNTASK,7 DVA,220,482,>,VALID 80%,Red,7,F,F,CORRECT,1118,Draft,endo-atten.prs
ENDOATTNTASK,7 DVA,221,364,<,VALID 80%,Blue,-7,F,F,CORRECT,836,Draft,endo-atten.prs
ENDOATTNTASK,7 DVA,222,351,>,VALID 80%,Blue,7,F,F,CORRECT,999,Draft,endo-atten.prs
ENDOATTNTASK,7 DVA,223,535,+,NEUTRAL 50%,Green,-7,J,J,CORRECT,1115,Draft,endo-atten.prs
ENDOATTNTASK,7 DVA,224,380,+,NEUTRAL 50%,Yellow,7,J,J,CORRECT,570,Draft,endo-atten.prs
ENDOATTNTASK,7 DVA,225,508,+,NEUTRAL 50%,Red,-7,F,F,CORRECT,742,Draft,endo-atten.prs
ENDOATTNTASK,7 DVA,226,375,<,VALID 80%,Red,-7,F,F,CORRECT,1075,Draft,endo-atten.prs
ENDOATTNTASK,7 DVA,227,499,+,NEUTRAL 50%,Yellow,7,J,J,CORRECT,551,Draft,endo-atten.prs
ENDOATTNTASK,7 DVA,228,404,+,NEUTRAL 50%,Green,7,J,J,CORRECT,1296,Draft,endo-atten.prs
ENDOATTNTASK,7 DVA,229,481,>,VALID 80%,Blue,7,F,F,CORRECT,519,Draft,endo-atten.prs
ENDOATTNTASK,7 DVA,230,419,+,NEUTRAL 50%,Red,-7,F,F,CORRECT,831,Draft,endo-atten.prs
ENDOATTNTASK,7 DVA,231,532,+,NEUTRAL 50%,Yellow,-7,J,J,CORRECT,1168,Draft,endo-atten.prs
ENDOATTNTASK,7 DVA,232,447,>,VALID 80%,Red,7,F,F,CORRECT,1153,Draft,endo-atten.prs
ENDOATTNTASK,7 DVA,233,385,<,VALID 80%,Blue,-7,F,F,CORRECT,815,Draft,endo-atten.prs
ENDOATTNTASK,7 DVA,234,372,+,NEUTRAL 50%,Blue,7,F,F,CORRECT,1228,Draft,endo-atten.prs
ENDOATTNTASK,7 DVA,235,380,>,VALID 80%,Blue,7,F,F,CORRECT,620,Draft,endo-atten.prs
ENDOATTNTASK,7 DVA,236,498,<,VALID 80%,Green,-7,J,J,CORRECT,902,Draft,endo-atten.prs
ENDOATTNTASK,7 DVA,237,380,>,VALID 80%,Green,7,J,J,CORRECT,720,Draft,endo-atten.prs
ENDOATTNTASK,7 DVA,238,463,>,VALID 80%,Red,7,F,F,CORRECT,537,Draft,endo-atten.prs
ENDOATTNTASK,7 DVA,239,522,+,NEUTRAL 50%,Green,-7,J,J,CORRECT,928,Draft,endo-atten.prs
ENDOATTNTASK,7 DVA,240,457,<,VALID 80%,Red,-7,F,F,CORRECT,793,Draft,endo-atten.prs
ENDOATTNTASK,7 DVA,241,373,>,VALID 80%,Blue,7,F,F,CORRECT,1027,Draft,endo-atten.prs
ENDOATTNTASK,7 DVA,242,437,>,VALID 80%,Yellow,7,J,J,CORRECT,913,Draft,endo-atten.prs
ENDOATTNTASK,7 DVA,243,520,<,INVALID 20%,Blue,7,F,F,CORRECT,930,Draft,endo-atten.prs
ENDOATTNTASK,7 DVA,244,470,>,VALID 80%,Green,7,J,J,CORRECT,580,Draft,endo-atten.prs
ENDOATTNTASK,7 DVA,245,437,>,VALID 80%,Red,7,F,F,CORRECT,1013,Draft,endo-atten.prs
ENDOATTNTASK,7 DVA,246,493,+,NEUTRAL 50%,Yellow,-7,J,J,CORRECT,1007,Draft,endo-atten.prs
ENDOATTNTASK,7 DVA,247,405,+,NEUTRAL 50%,Yellow,7,J,J,CORRECT,1095,Draft,endo-atten.prs
ENDOATTNTASK,7 DVA,248,409,+,NEUTRAL 50%,Yellow,7,J,J,CORRECT,1091,Draft,endo-atten.prs
ENDOATTNTASK,7 DVA,249,352,>,VALID 80%,Yellow,7,J,J,CORRECT,548,Draft,endo-atten.prs
ENDOATTNTASK,7 DVA,250,360,<,VALID 80%,Green,-7,J,J,CORRECT,640,Draft,endo-atten.prs
ENDOATTNTASK,7 DVA,251,499,+,NEUTRAL 50%,Red,-7,F,F,CORRECT,951,Draft,endo-atten.prs
ENDOATTNTASK,7 DVA,252,391,<,VALID 80%,Red,-7,F,F,CORRECT,1059,Draft,endo-atten.prs
ENDOATTNTASK,7 DVA,253,449,>,INVALID 20%,Red,-7,F,F,CORRECT,501,Draft,endo-atten.prs
ENDOATTNTASK,7 DVA,254,400,+,NEUTRAL 50%,Red,7,F,F,CORRECT,500,Draft,endo-atten.prs
ENDOATTNTASK,7 DVA,255,524,+,NEUTRAL 50%,Green,-7,J,J,CORRECT,976,Draft,endo-atten.prs
ENDOATTNTASK,7 DVA,256,358,<,VALID 80%,Yellow,-7,J,J,CORRECT,1142,Draft,endo-atten.prs
ENDOATTNTASK,7 DVA,257,487,<,VALID 80%,Blue,-7,F,F,CORRECT,713,Draft,endo-atten.prs
ENDOATTNTASK,7 DVA,258,484,>,VALID 80%,Green,7,J,J,CORRECT,1016,Draft,endo-atten.prs
ENDOATTNTASK,7 DVA,259,407,+,NEUTRAL 50%,Yellow,-7,J,J,CORRECT,843,Draft,endo-atten.prs
ENDOATTNTASK,7 DVA,260,438,>,VALID 80%,Red,7,F,F,CORRECT,1262,Draft,endo-atten.prs
ENDOATTNTASK,7 DVA,261,494,+,NEUTRAL 50%,Yellow,-7,J,J,CORRECT,606,Draft,endo-atten.prs
ENDOATTNTASK,7 DVA,262,341,>,VALID 80%,Yellow,7,J,J,CORRECT,609,Draft,endo-atten.prs
ENDOATTNTASK,7 DVA,263,375,>,VALID 80%,Green,7,J,J,CORRECT,1075,Draft,endo-atten.prs
ENDOATTNTASK,7 DVA,264,503,<,INVALID 20%,Red,7,F,F,CORRECT,1297,Draft,endo-atten.prs
ENDOATTNTASK,7 DVA,265,526,<,INVALID 20%,Green,7,J,J,CORRECT,624,Draft,endo-atten.prs
ENDOATTNTASK,7 DVA,266,405,+,NEUTRAL 50%,Yellow,-7,J,J,CORRECT,995,Draft,endo-atten.prs
ENDOATTNTASK,7 DVA,267,514,<,INVALID 20%,Blue,7,F,F,CORRECT,786,Draft,endo-atten.prs
ENDOATTNTASK,7 DVA,268,484,<,VALID 80%,Yellow,-7,J,J,CORRECT,916,Draft,endo-atten.prs
ENDOATTNTASK,7 DVA,269,488,<,VALID 80%,Red,-7,F,F,CORRECT,1262,Draft,endo-atten.prs
ENDOATTNTASK,7 DVA,270,375,>,VALID 80%,Blue,7,F,F,CORRECT,1225,Draft,endo-atten.prs
ENDOATTNTASK,7 DVA,271,379,>,VALID 80%,Red,7,F,F,CORRECT,1221,Draft,endo-atten.prs
ENDOATTNTASK,7 DVA,272,437,+,NEUTRAL 50%,Blue,-7,F,F,CORRECT,513,Draft,endo-atten.prs
ENDOATTNTASK,7 DVA,273,484,<,VALID 80%,Green,-7,J,J,CORRECT,966,Draft,endo-atten.prs
ENDOATTNTASK,7 DVA,274,453,>,VALID 80%,Red,7,F,F,CORRECT,1197,Draft,endo-atten.prs
ENDOATTNTASK,7 DVA,275,417,<,INVALID 20%,Red,7,F,F,CORRECT,1183,Draft,endo-atten.prs
ENDOATTNTASK,7 DVA,276,485,<,VALID 80%,Yellow,-7,J,J,CORRECT,615,Draft,endo-atten.prs
ENDOATTNTASK,7 DVA,277,457,>,VALID 80%,Blue,7,F,F,CORRECT,1193,Draft,endo-atten.prs
ENDOATTNTASK,7 DVA,278,528,+,NEUTRAL 50%,Green,-7,J,J,CORRECT,922,Draft,endo-atten.prs
ENDOATTNTASK,7 DVA,279,361,<,VALID 80%,Green,-7,J,J,CORRECT,939,Draft,endo-atten.prs
ENDOATTNTASK,7 DVA,280,538,+,NEUTRAL 50%,Blue,-7,F,F,CORRECT,962,Draft,endo-atten.prs
ENDOATTNTASK,7 DVA,281,483,>,VALID 80%,Yellow,7,J,J,CORRECT,1117,Draft,endo-atten.prs
ENDOATTNTASK,7 DVA,282,480,+,NEUTRAL 50%,Blue,7,F,F,CORRECT,520,Draft,endo-atten.prs
ENDOATTNTASK,7 DVA,283,512,+,NEUTRAL 50%,Green,7,J,J,CORRECT,888,Draft,endo-atten.prs
ENDOATTNTASK,7 DVA,284,477,<,VALID 80%,Blue,-7,F,F,CORRECT,523,Draft,endo-atten.prs
ENDOATTNTASK,7 DVA,285,516,+,NEUTRAL 50%,Yellow,-7,J,J,CORRECT,1084,Draft,endo-atten.prs
ENDOATTNTASK,7 DVA,286,459,<,VALID 80%,Red,-7,F,F,CORRECT,691,Draft,endo-atten.prs
ENDOATTNTASK,7 DVA,287,519,<,INVALID 20%,Green,7,J,J,CORRECT,581,Draft,endo-atten.prs
ENDOATTNTASK,7 DVA,288,365,<,VALID 80%,Yellow,-7,J,J,CORRECT,685,Draft,endo-atten.prs
ENDOATTNTASK,7 DVA,289,348,>,VALID 80%,Yellow,7,J,J,CORRECT,552,Draft,endo-atten.prs
ENDOATTNTASK,7 DVA,290,479,>,VALID 80%,Blue,7,F,F,CORRECT,921,Draft,endo-atten.prs
ENDOATTNTASK,7 DVA,291,529,+,NEUTRAL 50%,Yellow,-7,J,J,CORRECT,721,Draft,endo-atten.prs
ENDOATTNTASK,7 DVA,292,404,+,NEUTRAL 50%,Green,7,J,J,CORRECT,896,Draft,endo-atten.prs
ENDOATTNTASK,7 DVA,293,444,>,VALID 80%,Red,7,F,F,CORRECT,856,Draft,endo-atten.prs
ENDOATTNTASK,7 DVA,294,480,>,VALID 80%,Green,7,J,J,CORRECT,620,Draft,endo-atten.prs
ENDOATTNTASK,7 DVA,295,401,+,NEUTRAL 50%,Green,7,J,J,CORRECT,1249,Draft,endo-atten.prs
ENDOATTNTASK,7 DVA,296,522,>,INVALID 20%,Blue,-7,F,F,CORRECT,528,Draft,endo-atten.prs
ENDOATTNTASK,7 DVA,297,373,>,VALID 80%,Blue,7,F,F,CORRECT,727,Draft,endo-atten.prs
ENDOATTNTASK,7 DVA,298,399,+,NEUTRAL 50%,Red,-7,F,F,CORRECT,501,Draft,endo-atten.prs
ENDOATTNTASK,7 DVA,299,409,+,NEUTRAL 50%,Red,-7,F,F,CORRECT,991,Draft,endo-atten.prs
ENDOATTNTASK,7 DVA,300,462,>,VALID 80%,Yellow,7,J,J,CORRECT,988,Draft,endo-atten.prs
ENDOATTNTASK,7 DVA,301,338,>,VALID 80%,Yellow,7,J,J,CORRECT,862,Draft,endo-atten.prs
ENDOATTNTASK,7 DVA,302,437,<,INVALID 20%,Green,7,J,J,CORRECT,613,Draft,endo-atten.prs
ENDOATTNTASK,7 DVA,303,426,<,INVALID 20%,Yellow,7,J,J,CORRECT,1274,Draft,endo-atten.prs
ENDOATTNTASK,7 DVA,304,398,+,NEUTRAL 50%,Green,7,J,J,CORRECT,602,Draft,endo-atten.prs
ENDOATTNTASK,7 DVA,305,415,<,INVALID 20%,Yellow,7,J,J,CORRECT,985,Draft,endo-atten.prs
ENDOATTNTASK,7 DVA,306,414,<,INVALID 20%,Green,7,J,J,CORRECT,686,Draft,endo-atten.prs
ENDOATTNTASK,7 DVA,307,446,>,VALID 80%,Red,7,F,F,CORRECT,554,Draft,endo-atten.prs
ENDOATTNTASK,7 DVA,308,404,<,INVALID 20%,Blue,7,F,F,CORRECT,1046,Draft,endo-atten.prs
ENDOATTNTASK,7 DVA,309,425,+,NEUTRAL 50%,Blue,-7,F,F,CORRECT,1225,Draft,endo-atten.prs
ENDOATTNTASK,7 DVA,310,501,+,NEUTRAL 50%,Green,-7,J,J,CORRECT,699,Draft,endo-atten.prs
ENDOATTNTASK,7 DVA,311,528,+,NEUTRAL 50%,Red,-7,F,F,CORRECT,1022,Draft,endo-atten.prs
ENDOATTNTASK,7 DVA,312,427,+,NEUTRAL 50%,Blue,-7,F,F,CORRECT,573,Draft,endo-atten.prs
ENDOATTNTASK,7 DVA,313,361,<,VALID 80%,Red,-7,F,F,CORRECT,1189,Draft,endo-atten.prs
ENDOATTNTASK,7 DVA,314,444,>,VALID 80%,Yellow,7,J,J,CORRECT,706,Draft,endo-atten.prs
ENDOATTNTASK,7 DVA,315,425,<,INVALID 20%,Yellow,7,J,J,CORRECT,725,Draft,endo-atten.prs
ENDOATTNTASK,7 DVA,316,379,>,VALID 80%,Green,7,J,J,CORRECT,1221,Draft,endo-atten.prs
ENDOATTNTASK,7 DVA,317,538,>,INVALID 20%,Red,-7,F,F,CORRECT,1162,Draft,endo-atten.prs
ENDOATTNTASK,7 DVA,318,488,+,NEUTRAL 50%,Yellow,7,J,J,CORRECT,1212,Draft,endo-atten.prs
ENDOATTNTASK,7 DVA,319,558,>,INVALID 20%,Red,-7,F,F,CORRECT,1192,Draft,endo-atten.prs
ENDOATTNTASK,7 DVA,320,411,+,NEUTRAL 50%,Blue,7,F,F,CORRECT,1189,Draft,endo-atten.prs
ENDOATTNTASK,7 DVA,321,512,>,INVALID 20%,Green,-7,J,J,CORRECT,888,Draft,endo-atten.prs
ENDOATTNTASK,7 DVA,322,367,>,VALID 80%,Green,7,J,J,CORRECT,633,Draft,endo-atten.prs
ENDOATTNTASK,7 DVA,323,370,>,VALID 80%,Yellow,7,J,J,CORRECT,1280,Draft,endo-atten.prs
ENDOATTNTASK,7 DVA,324,499,<,VALID 80%,Red,-7,F,F,CORRECT,1051,Draft,endo-atten.prs
ENDOATTNTASK,7 DVA,325,464,<,VALID 80%,Green,-7,J,J,CORRECT,836,Draft,endo-atten.prs
ENDOATTNTASK,7 DVA,326,513,>,INVALID 20%,Red,-7,F,F,CORRECT,837,Draft,endo-atten.prs
ENDOATTNTASK,7 DVA,327,506,+,NEUTRAL 50%,Yellow,-7,J,J,CORRECT,844,Draft,endo-atten.prs
ENDOATTNTASK,7 DVA,328,494,<,VALID 80%,Blue,-7,F,F,CORRECT,1006,Draft,endo-atten.prs
ENDOATTNTASK,7 DVA,329,462,>,VALID 80%,Yellow,7,J,J,CORRECT,838,Draft,endo-atten.prs
ENDOATTNTASK,7 DVA,330,454,>,VALID 80%,Blue,7,F,F,CORRECT,846,Draft,endo-atten.prs
ENDOATTNTASK,7 DVA,331,520,+,NEUTRAL 50%,Green,-7,J,J,CORRECT,880,Draft,endo-atten.prs
ENDOATTNTASK,7 DVA,332,489,+,NEUTRAL 50%,Blue,7,F,F,CORRECT,911,Draft,endo-atten.prs
ENDOATTNTASK,7 DVA,333,460,>,VALID 80%,Green,7,J,J,CORRECT,840,Draft,endo-atten.prs
ENDOATTNTASK,7 DVA,334,493,<,VALID 80%,Blue,-7,F,F,CORRECT,657,Draft,endo-atten.prs
ENDOATTNTASK,7 DVA,335,445,>,INVALID 20%,Red,-7,F,F,CORRECT,655,Draft,endo-atten.prs
ENDOATTNTASK,7 DVA,336,416,+,NEUTRAL 50%,Blue,-7,F,F,CORRECT,1084,Draft,endo-atten.prs
ENDOATTNTASK,7 DVA,337,439,>,INVALID 20%,Blue,-7,F,F,CORRECT,1111,Draft,endo-atten.prs
ENDOATTNTASK,7 DVA,338,425,+,NEUTRAL 50%,Red,-7,F,F,CORRECT,1025,Draft,endo-atten.prs
ENDOATTNTASK,7 DVA,339,478,<,VALID 80%,Yellow,-7,J,J,CORRECT,1122,Draft,endo-atten.prs
ENDOATTNTASK,7 DVA,340,377,<,VALID 80%,Yellow,-7,J,J,CORRECT,623,Draft,endo-atten.prs
ENDOATTNTASK,7 DVA,341,383,+,NEUTRAL 50%,Green,7,J,J,CORRECT,1167,Draft,endo-atten.prs
ENDOATTNTASK,7 DVA,342,441,>,VALID 80%,Red,7,F,F,CORRECT,659,Draft,endo-atten.prs
ENDOATTNTASK,7 DVA,343,440,>,VALID 80%,Green,7,J,J,CORRECT,1060,Draft,endo-atten.prs
ENDOATTNTASK,7 DVA,344,530,>,INVALID 20%,Red,-7,F,F,CORRECT,1220,Draft,endo-atten.prs
ENDOATTNTASK,7 DVA,345,511,+,NEUTRAL 50%,Green,7,J,J,CORRECT,1239,Draft,endo-atten.prs
ENDOATTNTASK,7 DVA,346,461,>,VALID 80%,Red,7,F,F,CORRECT,889,Draft,endo-atten.prs
ENDOATTNTASK,7 DVA,347,526,>,INVALID 20%,Green,-7,J,J,CORRECT,974,Draft,endo-atten.prs
ENDOATTNTASK,7 DVA,348,426,+,NEUTRAL 50%,Yellow,-7,J,J,CORRECT,1074,Draft,endo-atten.prs
ENDOATTNTASK,7 DVA,349,542,>,INVALID 20%,Red,-7,F,F,CORRECT,508,Draft,endo-atten.prs
ENDOATTNTASK,7 DVA,350,369,>,VALID 80%,Blue,7,F,F,CORRECT,1281,Draft,endo-atten.prs
ENDOATTNTASK,7 DVA,351,361,<,VALID 80%,Blue,-7,F,F,CORRECT,789,Draft,endo-atten.prs
ENDOATTNTASK,7 DVA,352,449,>,VALID 80%,Yellow,7,J,J,CORRECT,751,Draft,endo-atten.prs
ENDOATTNTASK,7 DVA,353,434,+,NEUTRAL 50%,Yellow,-7,J,J,CORRECT,1016,Draft,endo-atten.prs
ENDOATTNTASK,7 DVA,354,428,+,NEUTRAL 50%,Green,-7,J,J,CORRECT,622,Draft,endo-atten.prs
ENDOATTNTASK,7 DVA,355,514,+,NEUTRAL 50%,Red,7,F,F,CORRECT,986,Draft,endo-atten.prs
ENDOATTNTASK,7 DVA,356,417,+,NEUTRAL 50%,Red,7,F,F,CORRECT,833,Draft,endo-atten.prs
ENDOATTNTASK,7 DVA,357,393,<,VALID 80%,Red,-7,F,F,CORRECT,1057,Draft,endo-atten.prs
ENDOATTNTASK,7 DVA,358,385,>,VALID 80%,Blue,7,F,F,CORRECT,1165,Draft,endo-atten.prs
ENDOATTNTASK,7 DVA,359,517,+,NEUTRAL 50%,Green,-7,J,J,CORRECT,1083,Draft,endo-atten.prs
ENDOATTNTASK,7 DVA,360,378,+,NEUTRAL 50%,Green,7,J,J,CORRECT,1272,Draft,endo-atten.prs
ENDOATTNTASK,7 DVA,361,479,>,VALID 80%,Blue,7,F,F,CORRECT,521,Draft,endo-atten.prs
ENDOATTNTASK,7 DVA,362,368,<,VALID 80%,Blue,-7,F,F,CORRECT,732,Draft,endo-atten.prs
ENDOATTNTASK,7 DVA,363,509,+,NEUTRAL 50%,Green,-7,J,J,CORRECT,741,Draft,endo-atten.prs
ENDOATTNTASK,7 DVA,364,348,>,VALID 80%,Green,7,J,J,CORRECT,1102,Draft,endo-atten.prs
ENDOATTNTASK,7 DVA,365,346,>,VALID 80%,Green,7,J,J,CORRECT,504,Draft,endo-atten.prs
ENDOATTNTASK,7 DVA,366,449,>,VALID 80%,Blue,7,F,F,CORRECT,851,Draft,endo-atten.prs
ENDOATTNTASK,7 DVA,367,409,+,NEUTRAL 50%,Blue,-7,F,F,CORRECT,941,Draft,endo-atten.prs
ENDOATTNTASK,7 DVA,368,454,>,VALID 80%,Yellow,7,J,J,CORRECT,896,Draft,endo-atten.prs
ENDOATTNTASK,7 DVA,369,510,+,NEUTRAL 50%,Blue,-7,F,F,CORRECT,1190,Draft,endo-atten.prs
ENDOATTNTASK,7 DVA,370,507,+,NEUTRAL 50%,Green,-7,J,J,CORRECT,1193,Draft,endo-atten.prs
ENDOATTNTASK,7 DVA,371,339,>,VALID 80%,Yellow,7,J,J,CORRECT,511,Draft,endo-atten.prs
ENDOATTNTASK,7 DVA,372,376,<,VALID 80%,Green,-7,J,J,CORRECT,574,Draft,endo-atten.prs
ENDOATTNTASK,7 DVA,373,494,<,VALID 80%,Red,-7,F,F,CORRECT,1106,Draft,endo-atten.prs
ENDOATTNTASK,7 DVA,374,454,>,VALID 80%,Yellow,7,J,J,CORRECT,1296,Draft,endo-atten.prs
ENDOATTNTASK,7 DVA,375,416,+,NEUTRAL 50%,Yellow,7,J,J,CORRECT,684,Draft,endo-atten.prs
ENDOATTNTASK,7 DVA,376,429,<,INVALID 20%,Yellow,7,J,J,CORRECT,571,Draft,endo-atten.prs
ENDOATTNTASK,7 DVA,377,507,+,NEUTRAL 50%,Red,-7,F,F,CORRECT,1243,Draft,endo-atten.prs
ENDOATTNTASK,7 DVA,378,460,<,VALID 80%,Yellow,-7,J,J,CORRECT,790,Draft,endo-atten.prs
ENDOATTNTASK,7 DVA,379,456,>,VALID 80%,Red,7,F,F,CORRECT,1044,Draft,endo-atten.prs
ENDOATTNTASK,7 DVA,380,508,+,NEUTRAL 50%,Green,7,J,J,CORRECT,942,Draft,endo-atten.prs
ENDOATTNTASK,7 DVA,381,441,>,VALID 80%,Red,7,F,F,CORRECT,1059,Draft,endo-atten.prs
ENDOATTNTASK,7 DVA,382,364,>,VALID 80%,Red,7,F,F,CORRECT,1186,Draft,endo-atten.prs
ENDOATTNTASK,7 DVA,383,481,+,NEUTRAL 50%,Green,7,J,J,CORRECT,869,Draft,endo-atten.prs
ENDOATTNTASK,7 DVA,384,441,<,INVALID 20%,Yellow,7,J,J,CORRECT,909,Draft,endo-atten.prs
ENDOATTNTASK,7 DVA,385,453,<,VALID 80%,Red,-7,F,F,CORRECT,847,Draft,endo-atten.prs
ENDOATTNTASK,7 DVA,386,377,>,VALID 80%,Blue,7,F,F,CORRECT,1123,Draft,endo-atten.prs
ENDOATTNTASK,7 DVA,387,436,>,VALID 80%,Yellow,7,J,J,CORRECT,564,Draft,endo-atten.prs
ENDOATTNTASK,7 DVA,388,484,>,VALID 80%,Blue,7,F,F,CORRECT,1066,Draft,endo-atten.prs
ENDOATTNTASK,7 DVA,389,387,<,VALID 80%,Blue,-7,F,F,CORRECT,563,Draft,endo-atten.prs
ENDOATTNTASK,7 DVA,390,553,>,INVALID 20%,Green,-7,J,J,CORRECT,797,Draft,endo-atten.prs
ENDOATTNTASK,7 DVA,391,474,+,NEUTRAL 50%,Red,7,F,F,CORRECT,576,Draft,endo-atten.prs
ENDOATTNTASK,7 DVA,392,339,>,VALID 80%,Red,7,F,F,CORRECT,811,Draft,endo-atten.prs
ENDOATTNTASK,7 DVA,393,493,<,VALID 80%,Yellow,-7,J,J,CORRECT,657,Draft,endo-atten.prs
ENDOATTNTASK,7 DVA,394,507,+,NEUTRAL 50%,Red,7,F,F,CORRECT,793,Draft,endo-atten.prs
ENDOATTNTASK,7 DVA,395,372,>,VALID 80%,Blue,7,F,F,CORRECT,578,Draft,endo-atten.prs
ENDOATTNTASK,7 DVA,396,524,>,INVALID 20%,Yellow,-7,J,J,CORRECT,676,Draft,endo-atten.prs
ENDOATTNTASK,7 DVA,397,402,+,NEUTRAL 50%,Green,-7,J,J,CORRECT,1148,Draft,endo-atten.prs
ENDOATTNTASK,7 DVA,398,496,<,VALID 80%,Blue,-7,F,F,CORRECT,954,Draft,endo-atten.prs
ENDOATTNTASK,7 DVA,399,543,>,INVALID 20%,Green,-7,J,J,CORRECT,857,Draft,endo-atten.prs
ENDOATTNTASK,7 DVA,400,369,<,VALID 80%,Yellow,-7,J,J,CORRECT,1231,Draft,endo-atten.prs
ENDOATTNTASK,7 DVA,401,520,+,NEUTRAL 50%,Red,-7,F,F,CORRECT,1280,Draft,endo-atten.prs
ENDOATTNTASK,7 DVA,402,372,>,VALID 80%,Blue,7,F,F,CORRECT,1178,Draft,endo-atten.prs
ENDOATTNTASK,7 DVA,403,364,<,VALID 80%,Red,-7,F,F,CORRECT,1186,Draft,endo-atten.prs
ENDOATTNTASK,7 DVA,404,345,>,VALID 80%,Red,7,F,F,CORRECT,505,Draft,endo-atten.prs
ENDOATTNTASK,7 DVA,405,449,>,VALID 80%,Yellow,7,J,J,CORRECT,1001,Draft,endo-atten.prs
ENDOATTNTASK,7 DVA,406,395,<,VALID 80%,Yellow,-7,J,J,CORRECT,705,Draft,endo-atten.prs
ENDOATTNTASK,7 DVA,407,386,<,VALID 80%,Green,-7,J,J,CORRECT,614,Draft,endo-atten.prs
ENDOATTNTASK,7 DVA,408,364,>,VALID 80%,Green,7,J,J,CORRECT,736,Draft,endo-atten.prs
ENDOATTNTASK,7 DVA,409,493,+,NEUTRAL 50%,Red,7,F,F,CORRECT,957,Draft,endo-atten.prs
ENDOATTNTASK,7 DVA,410,480,<,VALID 80%,Green,-7,J,J,CORRECT,1120,Draft,endo-atten.prs
ENDOATTNTASK,7 DVA,411,372,>,VALID 80%,Green,7,J,J,CORRECT,828,Draft,endo-atten.prs
ENDOATTNTASK,7 DVA,412,481,<,VALID 80%,Blue,-7,F,F,CORRECT,919,Draft,endo-atten.prs
ENDOATTNTASK,7 DVA,413,511,+,NEUTRAL 50%,Yellow,-7,J,J,CORRECT,1089,Draft,endo-atten.prs
ENDOATTNTASK,7 DVA,414,357,>,VALID 80%,Yellow,7,J,J,CORRECT,1093,Draft,endo-atten.prs
ENDOATTNTASK,7 DVA,415,525,>,INVALID 20%,Red,-7,F,F,CORRECT,1175,Draft,endo-atten.prs
ENDOATTNTASK,7 DVA,416,403,+,NEUTRAL 50%,Blue,-7,F,F,CORRECT,1047,Draft,endo-atten.prs
ENDOATTNTASK,7 DVA,417,451,<,VALID 80%,Yellow,-7,J,J,CORRECT,699,Draft,endo-atten.prs
ENDOATTNTASK,7 DVA,418,385,>,VALID 80%,Yellow,7,J,J,CORRECT,515,Draft,endo-atten.prs
ENDOATTNTASK,7 DVA,419,400,+,NEUTRAL 50%,Yellow,-7,J,J,CORRECT,600,Draft,endo-atten.prs
ENDOATTNTASK,7 DVA,420,415,+,NEUTRAL 50%,Green,-7,J,J,CORRECT,885,Draft,endo-atten.prs
ENDOATTNTASK,7 DVA,421,460,<,VALID 80%,Red,-7,F,F,CORRECT,540,Draft,endo-atten.prs
ENDOATTNTASK,7 DVA,422,463,<,VALID 80%,Green,-7,J,J,CORRECT,987,Draft,endo-atten.prs
ENDOATTNTASK,7 DVA,423,409,+,NEUTRAL 50%,Green,-7,J,J,CORRECT,841,Draft,endo-atten.prs
ENDOATTNTASK,7 DVA,424,470,<,VALID 80%,Blue,-7,F,F,CORRECT,880,Draft,endo-atten.prs
ENDOATTNTASK,7 DVA,425,385,<,VALID 80%,Blue,-7,F,F,CORRECT,565,Draft,endo-atten.prs
ENDOATTNTASK,7 DVA,426,542,>,INVALID 20%,Green,-7,J,J,CORRECT,1008,Draft,endo-atten.prs
ENDOATTNTASK,7 DVA,427,403,+,NEUTRAL 50%,Yellow,7,J,J,CORRECT,547,Draft,endo-atten.prs
ENDOATTNTASK,7 DVA,428,392,<,VALID 80%,Green,-7,J,J,CORRECT,1208,Draft,endo-atten.prs
ENDOATTNTASK,7 DVA,429,514,>,INVALID 20%,Red,-7,F,F,CORRECT,1136,Draft,endo-atten.prs
ENDOATTNTASK,7 DVA,430,428,+,NEUTRAL 50%,Red,-7,F,F,CORRECT,672,Draft,endo-atten.prs
ENDOATTNTASK,7 DVA,431,364,>,VALID 80%,Red,7,F,F,CORRECT,986,Draft,endo-atten.prs
ENDOATTNTASK,7 DVA,432,492,+,NEUTRAL 50%,Yellow,7,J,J,CORRECT,1208,Draft,endo-atten.prs
ENDOATTNTASK,7 DVA,433,474,>,VALID 80%,Red,7,F,F,CORRECT,676,Draft,endo-atten.prs
ENDOATTNTASK,7 DVA,434,467,<,VALID 80%,Yellow,-7,J,J,CORRECT,583,Draft,endo-atten.prs
ENDOATTNTASK,7 DVA,435,475,<,VALID 80%,Red,-7,F,F,CORRECT,1125,Draft,endo-atten.prs
ENDOATTNTASK,7 DVA,436,463,<,VALID 80%,Green,-7,J,J,CORRECT,537,Draft,endo-atten.prs
ENDOATTNTASK,7 DVA,437,501,+,NEUTRAL 50%,Red,-7,F,F,CORRECT,949,Draft,endo-atten.prs
ENDOATTNTASK,7 DVA,438,336,>,VALID 80%,Red,7,F,F,CORRECT,714,Draft,endo-atten.prs
ENDOATTNTASK,7 DVA,439,388,+,NEUTRAL 50%,Red,7,F,F,CORRECT,1012,Draft,endo-atten.prs
ENDOATTNTASK,7 DVA,440,441,>,VALID 80%,Green,7,J,J,CORRECT,1109,Draft,endo-atten.prs
ENDOATTNTASK,7 DVA,441,486,<,VALID 80%,Red,-7,F,F,CORRECT,1264,Draft,endo-atten.prs
ENDOATTNTASK,7 DVA,442,387,+,NEUTRAL 50%,Red,7,F,F,CORRECT,1263,Draft,endo-atten.prs
ENDOATTNTASK,7 DVA,443,522,+,NEUTRAL 50%,Green,-7,J,J,CORRECT,1228,Draft,endo-atten.prs
ENDOATTNTASK,7 DVA,444,487,+,NEUTRAL 50%,Blue,7,F,F,CORRECT,863,Draft,endo-atten.prs
ENDOATTNTASK,7 DVA,445,467,>,VALID 80%,Yellow,7,J,J,CORRECT,1133,Draft,endo-atten.prs
ENDOATTNTASK,7 DVA,446,360,>,VALID 80%,Green,7,J,J,CORRECT,940,Draft,endo-atten.prs
ENDOATTNTASK,7 DVA,447,501,+,NEUTRAL 50%,Red,7,F,F,CORRECT,1099,Draft,endo-atten.prs
ENDOATTNTASK,7 DVA,448,341,>,VALID 80%,Red,7,F,F,CORRECT,1159,Draft,endo-atten.prs
ENDOATTNTASK,7 DVA,449,530,+,NEUTRAL 50%,Yellow,-7,J,J,CORRECT,1220,Draft,endo-atten.prs
ENDOATTNTASK,7 DVA,450,439,+,NEUTRAL 50%,Green,-7,J,J,CORRECT,761,Draft,endo-atten.prs
ENDOATTNTASK,7 DVA,451,488,<,VALID 80%,Red,-7,F,F,CORRECT,612,Draft,endo-atten.prs
ENDOATTNTASK,7 DVA,452,479,>,VALID 80%,Green,7,J,J,CORRECT,721,Draft,endo-atten.prs
ENDOATTNTASK,7 DVA,453,370,<,VALID 80%,Yellow,-7,J,J,CORRECT,1130,Draft,endo-atten.prs
ENDOATTNTASK,7 DVA,454,345,>,VALID 80%,Green,7,J,J,CORRECT,955,Draft,endo-atten.prs
ENDOATTNTASK,7 DVA,455,368,>,VALID 80%,Green,7,J,J,CORRECT,1282,Draft,endo-atten.prs
ENDOATTNTASK,7 DVA,456,459,<,VALID 80%,Blue,-7,F,F,CORRECT,1191,Draft,endo-atten.prs
ENDOATTNTASK,7 DVA,457,397,<,VALID 80%,Blue,-7,F,F,CORRECT,1003,Draft,endo-atten.prs
ENDOATTNTASK,7 DVA,458,448,>,VALID 80%,Yellow,7,J,J,CORRECT,952,Draft,endo-atten.prs
ENDOATTNTASK,7 DVA,459,480,>,VALID 80%,Blue,7,F,F,CORRECT,920,Draft,endo-atten.prs
ENDOATTNTASK,7 DVA,460,500,<,VALID 80%,Green,-7,J,J,CORRECT,550,Draft,endo-atten.prs
ENDOATTNTASK,7 DVA,461,417,+,NEUTRAL 50%,Yellow,-7,J,J,CORRECT,1033,Draft,endo-atten.prs
ENDOATTNTASK,7 DVA,462,443,>,VALID 80%,Blue,7,F,F,CORRECT,907,Draft,endo-atten.prs
ENDOATTNTASK,7 DVA,463,391,<,VALID 80%,Blue,-7,F,F,CORRECT,1259,Draft,endo-atten.prs
ENDOATTNTASK,7 DVA,464,362,>,VALID 80%,Red,7,F,F,CORRECT,538,Draft,endo-atten.prs
ENDOATTNTASK,7 DVA,465,493,<,VALID 80%,Green,-7,J,J,CORRECT,607,Draft,endo-atten.prs
ENDOATTNTASK,7 DVA,466,389,<,VALID 80%,Yellow,-7,J,J,CORRECT,861,Draft,endo-atten.prs
ENDOATTNTASK,7 DVA,467,385,>,VALID 80%,Yellow,7,J,J,CORRECT,865,Draft,endo-atten.prs
ENDOATTNTASK,7 DVA,468,370,<,VALID 80%,Yellow,-7,J,J,CORRECT,630,Draft,endo-atten.prs
ENDOATTNTASK,7 DVA,469,339,>,VALID 80%,Yellow,7,J,J,CORRECT,811,Draft,endo-atten.prs
ENDOATTNTASK,7 DVA,470,484,>,VALID 80%,Blue,7,F,F,CORRECT,666,Draft,endo-atten.prs
ENDOATTNTASK,7 DVA,471,352,>,VALID 80%,Red,7,F,F,CORRECT,848,Draft,endo-atten.prs
ENDOATTNTASK,7 DVA,472,360,<,VALID 80%,Blue,-7,F,F,CORRECT,790,Draft,endo-atten.prs
ENDOATTNTASK,7 DVA,473,379,>,VALID 80%,Red,7,F,F,CORRECT,771,Draft,endo-atten.prs
ENDOATTNTASK,7 DVA,474,372,<,VALID 80%,Blue,-7,F,F,CORRECT,928,Draft,endo-atten.prs
ENDOATTNTASK,7 DVA,475,434,<,INVALID 20%,Red,7,F,F,CORRECT,566,Draft,endo-atten.prs
ENDOATTNTASK,7 DVA,476,486,<,VALID 80%,Green,-7,J,J,CORRECT,714,Draft,endo-atten.prs
ENDOATTNTASK,7 DVA,477,481,>,VALID 80%,Blue,7,F,F,CORRECT,1219,Draft,endo-atten.prs
ENDOATTNTASK,7 DVA,478,509,+,NEUTRAL 50%,Yellow,7,J,J,CORRECT,691,Draft,endo-atten.prs
ENDOATTNTASK,7 DVA,479,485,<,VALID 80%,Red,-7,F,F,CORRECT,1165,Draft,endo-atten.prs
ENDOATTNTASK,7 DVA,480,458,>,VALID 80%,Green,7,J,J,CORRECT,1092,Draft,endo-atten.prs
ENDOATTNTASK,7 DVA,481,380,<,VALID 80%,Yellow,-7,J,J,CORRECT,970,Draft,endo-atten.prs
ENDOATTNTASK,7 DVA,482,355,>,VALID 80%,Yellow,7,J,J,CORRECT,1045,Draft,endo-atten.prs
ENDOATTNTASK,7 DVA,483,407,+,NEUTRAL 50%,Yellow,7,J,J,CORRECT,643,Draft,endo-atten.prs
ENDOATTNTASK,7 DVA,484,499,<,VALID 80%,Blue,-7,F,F,CORRECT,851,Draft,endo-atten.prs
ENDOATTNTASK,7 DVA,485,460,<,VALID 80%,Green,-7,J,J,CORRECT,840,Draft,endo-atten.prs
ENDOATTNTASK,7 DVA,486,418,<,INVALID 20%,Yellow,7,J,J,CORRECT,1232,Draft,endo-atten.prs
ENDOATTNTASK,7 DVA,487,484,>,VALID 80%,Blue,7,F,F,CORRECT,616,Draft,endo-atten.prs
ENDOATTNTASK,7 DVA,488,394,<,VALID 80%,Red,-7,F,F,CORRECT,806,Draft,endo-atten.prs
ENDOATTNTASK,7 DVA,489,366,>,VALID 80%,Red,7,F,F,CORRECT,1084,Draft,endo-atten.prs
ENDOATTNTASK,7 DVA,490,508,+,NEUTRAL 50%,Green,-7,J,J,CORRECT,1192,Draft,endo-atten.prs
ENDOATTNTASK,7 DVA,491,458,<,VALID 80%,Blue,-7,F,F,CORRECT,1192,Draft,endo-atten.prs
ENDOATTNTASK,7 DVA,492,366,<,VALID 80%,Red,-7,F,F,CORRECT,1234,Draft,endo-atten.prs
ENDOATTNTASK,7 DVA,493,476,+,NEUTRAL 50%,Green,7,J,J,CORRECT,724,Draft,endo-atten.prs
ENDOATTNTASK,7 DVA,494,467,<,VALID 80%,Red,-7,F,F,CORRECT,733,Draft,endo-atten.prs
ENDOATTNTASK,7 DVA,495,555,>,INVALID 20%,Green,-7,J,J,CORRECT,1245,Draft,endo-atten.prs
ENDOATTNTASK,7 DVA,496,473,>,VALID 80%,Blue,7,F,F,CORRECT,927,Draft,endo-atten.prs
ENDOATTNTASK,7 DVA,497,380,+,NEUTRAL 50%,Blue,7,F,F,CORRECT,870,Draft,endo-atten.prs
ENDOATTNTASK,7 DVA,498,482,<,VALID 80%,Yellow,-7,J,J,CORRECT,1118,Draft,endo-atten.prs
ENDOATTNTASK,7 DVA,499,497,+,NEUTRAL 50%,Blue,-7,F,F,CORRECT,953,Draft,endo-atten.prs
ENDOATTNTASK,7 DVA,500,453,>,VALID 80%,Green,7,J,J,CORRECT,547,Draft,endo-atten.prs
ENDOATTNTASK,7 DVA,501,380,<,VALID 80%,Green,-7,J,J,CORRECT,1170,Draft,endo-atten.prs
ENDOATTNTASK,7 DVA,502,386,+,NEUTRAL 50%,Green,7,J,J,CORRECT,714,Draft,endo-atten.prs
ENDOATTNTASK,7 DVA,503,438,>,VALID 80%,Blue,7,F,F,CORRECT,1162,Draft,endo-atten.prs
ENDOATTNTASK,7 DVA,504,494,<,VALID 80%,Green,-7,J,J,CORRECT,1206,Draft,endo-atten.prs
ENDOATTNTASK,7 DVA,505,378,<,VALID 80%,Green,-7,J,J,CORRECT,722,Draft,endo-atten.prs
ENDOATTNTASK,7 DVA,506,359,>,VALID 80%,Green,7,J,J,CORRECT,641,Draft,endo-atten.prs
ENDOATTNTASK,7 DVA,507,342,>,VALID 80%,Green,7,J,J,CORRECT,1058,Draft,endo-atten.prs
ENDOATTNTASK,7 DVA,508,419,+,NEUTRAL 50%,Yellow,-7,J,J,CORRECT,981,Draft,endo-atten.prs
ENDOATTNTASK,7 DVA,509,491,<,VALID 80%,Blue,-7,F,F,CORRECT,809,Draft,endo-atten.prs
ENDOATTNTASK,7 DVA,510,509,<,INVALID 20%,Green,7,J,J,CORRECT,1291,Draft,endo-atten.prs
ENDOATTNTASK,7 DVA,511,345,>,VALID 80%,Yellow,7,J,J,CORRECT,1155,Draft,endo-atten.prs
ENDOATTNTASK,7 DVA,512,474,>,VALID 80%,Blue,7,F,F,CORRECT,1226,Draft,endo-atten.prs
ENDOATTNTASK,7 DVA,513,396,<,INVALID 20%,Red,7,F,F,CORRECT,504,Draft,endo-atten.prs
ENDOATTNTASK,7 DVA,514,470,>,VALID 80%,Green,7,J,J,CORRECT,530,Draft,endo-atten.prs
ENDOATTNTASK,7 DVA,515,442,>,VALID 80%,Red,7,F,F,CORRECT,1058,Draft,endo-atten.prs
ENDOATTNTASK,7 DVA,516,358,>,VALID 80%,Red,7,F,F,CORRECT,742,Draft,endo-atten.prs
ENDOATTNTASK,7 DVA,517,533,+,NEUTRAL 50%,Green,-7,J,J,CORRECT,567,Draft,endo-atten.prs
ENDOATTNTASK,7 DVA,518,518,+,NEUTRAL 50%,Red,-7,F,F,CORRECT,1282,Draft,endo-atten.prs
ENDOATTNTASK,7 DVA,519,462,>,VALID 80%,Yellow,7,J,J,CORRECT,1038,Draft,endo-atten.prs
ENDOATTNTASK,7 DVA,520,445,>,INVALID 20%,Yellow,-7,J,J,CORRECT,1255,Draft,endo-atten.prs
ENDOATTNTASK,7 DVA,521,377,>,VALID 80%,Yellow,7,J,J,CORRECT,623,Draft,endo-atten.prs
ENDOATTNTASK,7 DVA,522,423,+,NEUTRAL 50%,Green,-7,J,J,CORRECT,927,Draft,endo-atten.prs
ENDOATTNTASK,7 DVA,523,497,+,NEUTRAL 50%,Red,7,F,F,CORRECT,553,Draft,endo-atten.prs
ENDOATTNTASK,7 DVA,524,515,+,NEUTRAL 50%,Yellow,-7,J,J,CORRECT,535,Draft,endo-atten.prs
ENDOATTNTASK,7 DVA,525,508,+,NEUTRAL 50%,Red,7,F,F,CORRECT,642,Draft,endo-atten.prs
ENDOATTNTASK,7 DVA,526,382,>,VALID 80%,Blue,7,F,F,CORRECT,918,Draft,endo-atten.prs
ENDOATTNTASK,7 DVA,527,420,+,NEUTRAL 50%,Red,7,F,F,CORRECT,930,Draft,endo-atten.prs
ENDOATTNTASK,7 DVA,528,494,+,NEUTRAL 50%,Green,7,J,J,CORRECT,1206,Draft,endo-atten.prs
ENDOATTNTASK,7 DVA,529,476,+,NEUTRAL 50%,Red,7,F,F,CORRECT,774,Draft,endo-atten.prs
ENDOATTNTASK,7 DVA,530,363,>,VALID 80%,Blue,7,F,F,CORRECT,937,Draft,endo-atten.prs
ENDOATTNTASK,7 DVA,531,442,>,VALID 80%,Green,7,J,J,CORRECT,1108,Draft,endo-atten.prs
ENDOATTNTASK,7 DVA,532,469,<,VALID 80%,Red,-7,F,F,CORRECT,1181,Draft,endo-atten.prs
ENDOATTNTASK,7 DVA,533,399,+,NEUTRAL 50%,Red,7,F,F,CORRECT,1251,Draft,endo-atten.prs
ENDOATTNTASK,7 DVA,534,376,>,VALID 80%,Blue,7,F,F,CORRECT,624,Draft,endo-atten.prs
ENDOATTNTASK,7 DVA,535,440,>,VALID 80%,Green,7,J,J,CORRECT,860,Draft,endo-atten.prs
ENDOATTNTASK,7 DVA,536,436,>,VALID 80%,Red,7,F,F,CORRECT,714,Draft,endo-atten.prs
ENDOATTNTASK,7 DVA,537,485,>,VALID 80%,Green,7,J,J,CORRECT,1165,Draft,endo-atten.prs
ENDOATTNTASK,7 DVA,538,481,+,NEUTRAL 50%,Blue,7,F,F,CORRECT,969,Draft,endo-atten.prs
ENDOATTNTASK,7 DVA,539,465,>,VALID 80%,Yellow,7,J,J,CORRECT,585,Draft,endo-atten.prs
ENDOATTNTASK,7 DVA,540,351,<,VALID 80%,Yellow,-7,J,J,CORRECT,1099,Draft,endo-atten.prs
ENDOATTNTASK,7 DVA,541,460,<,VALID 80%,Blue,-7,F,F,CORRECT,1090,Draft,endo-atten.prs
ENDOATTNTASK,7 DVA,542,520,+,NEUTRAL 50%,Yellow,-7,J,J,CORRECT,780,Draft,endo-atten.prs
ENDOATTNTASK,7 DVA,543,361,<,VALID 80%,Yellow,-7,J,J,CORRECT,889,Draft,endo-atten.prs
ENDOATTNTASK,7 DVA,544,455,<,VALID 80%,Red,-7,F,F,CORRECT,795,Draft,endo-atten.prs
ENDOATTNTASK,7 DVA,545,449,>,VALID 80%,Yellow,7,J,J,CORRECT,1151,Draft,endo-atten.prs
ENDOATTNTASK,7 DVA,546,495,<,VALID 80%,Blue,-7,F,F,CORRECT,705,Draft,endo-atten.prs
ENDOATTNTASK,7 DVA,547,495,<,VALID 80%,Green,-7,J,J,CORRECT,555,Draft,endo-atten.prs
ENDOATTNTASK,7 DVA,548,371,>,VALID 80%,Yellow,7,J,J,CORRECT,1179,Draft,endo-atten.prs
ENDOATTNTASK,7 DVA,549,374,>,VALID 80%,Green,7,J,J,CORRECT,826,Draft,endo-atten.prs
ENDOATTNTASK,7 DVA,550,502,<,INVALID 20%,Red,7,F,F,CORRECT,1198,Draft,endo-atten.prs
ENDOATTNTASK,7 DVA,551,386,+,NEUTRAL 50%,Blue,7,F,F,CORRECT,614,Draft,endo-atten.prs
ENDOATTNTASK,7 DVA,552,358,<,VALID 80%,Blue,-7,F,F,CORRECT,642,Draft,endo-atten.prs
ENDOATTNTASK,7 DVA,553,523,+,NEUTRAL 50%,Yellow,-7,J,J,CORRECT,577,Draft,endo-atten.prs
ENDOATTNTASK,7 DVA,554,388,+,NEUTRAL 50%,Yellow,7,J,J,CORRECT,1212,Draft,endo-atten.prs
ENDOATTNTASK,7 DVA,555,382,<,VALID 80%,Green,-7,J,J,CORRECT,568,Draft,endo-atten.prs
ENDOATTNTASK,7 DVA,556,392,<,VALID 80%,Yellow,-7,J,J,CORRECT,1258,Draft,endo-atten.prs
ENDOATTNTASK,7 DVA,557,366,<,VALID 80%,Green,-7,J,J,CORRECT,834,Draft,endo-atten.prs
ENDOATTNTASK,7 DVA,558,513,+,NEUTRAL 50%,Blue,-7,F,F,CORRECT,537,Draft,endo-atten.prs
ENDOATTNTASK,7 DVA,559,362,>,VALID 80%,Blue,7,F,F,CORRECT,588,Draft,endo-atten.prs
ENDOATTNTASK,7 DVA,560,472,>,VALID 80%,Green,7,J,J,CORRECT,1128,Draft,endo-atten.prs
ENDOATTNTASK,7 DVA,561,487,<,VALID 80%,Red,-7,F,F,CORRECT,1013,Draft,endo-atten.prs
ENDOATTNTASK,7 DVA,562,497,+,NEUTRAL 50%,Yellow,7,J,J,CORRECT,503,Draft,endo-atten.prs
ENDOATTNTASK,7 DVA,563,373,+,NEUTRAL 50%,Yellow,7,J,J,CORRECT,1227,Draft,endo-atten.prs
ENDOATTNTASK,7 DVA,564,471,>,VALID 80%,Red,7,F,F,CORRECT,879,Draft,endo-atten.prs
ENDOATTNTASK,7 DVA,565,439,<,INVALID 20%,Red,7,F,F,CORRECT,511,Draft,endo-atten.prs
ENDOATTNTASK,7 DVA,566,417,>,INVALID 20%,Blue,-7,F,F,CORRECT,683,Draft,endo-atten.prs
ENDOATTNTASK,7 DVA,567,409,+,NEUTRAL 50%,Blue,-7,F,F,CORRECT,541,Draft,endo-atten.prs
ENDOATTNTASK,7 DVA,568,464,>,VALID 80%,Yellow,7,J,J,CORRECT,786,Draft,endo-atten.prs
ENDOATTNTASK,7 DVA,569,465,>,VALID 80%,Blue,7,F,F,CORRECT,635,Draft,endo-atten.prs
ENDOATTNTASK,7 DVA,570,475,<,VALID 80%,Green,-7,J,J,CORRECT,875,Draft,endo-atten.prs
ENDOATTNTASK,7 DVA,571,344,>,VALID 80%,Green,7,J,J,CORRECT,756,Draft,endo-atten.prs
ENDOATTNTASK,7 DVA,572,338,>,VALID 80%,Yellow,7,J,J,CORRECT,1112,Draft,endo-atten.prs
ENDOATTNTASK,7 DVA,573,487,<,VALID 80%,Blue,-7,F,F,CORRECT,813,Draft,endo-atten.prs
ENDOATTNTASK,7 DVA,574,452,<,VALID 80%,Yellow,-7,J,J,CORRECT,698,Draft,endo-atten.prs
ENDOATTNTASK,7 DVA,575,447,>,VALID 80%,Blue,7,F,F,CORRECT,703,Draft,endo-atten.prs
ENDOATTNTASK,7 DVA,576,518,<,INVALID 20%,Green,7,J,J,CORRECT,882,Draft,endo-atten.prs
ENDOATTNTASK,7 DVA,577,393,<,VALID 80%,Green,-7,J,J,CORRECT,1157,Draft,endo-atten.prs
ENDOATTNTASK,7 DVA,578,536,+,NEUTRAL 50%,Blue,-7,F,F,CORRECT,964,Draft,endo-atten.prs
ENDOATTNTASK,7 DVA,579,381,+,NEUTRAL 50%,Red,7,F,F,CORRECT,819,Draft,endo-atten.prs
ENDOATTNTASK,7 DVA,580,460,>,VALID 80%,Yellow,7,J,J,CORRECT,740,Draft,endo-atten.prs
ENDOATTNTASK,7 DVA,581,404,+,NEUTRAL 50%,Green,7,J,J,CORRECT,1296,Draft,endo-atten.prs
ENDOATTNTASK,7 DVA,582,473,+,NEUTRAL 50%,Red,7,F,F,CORRECT,1127,Draft,endo-atten.prs
ENDOATTNTASK,7 DVA,583,400,<,VALID 80%,Blue,-7,F,F,CORRECT,1100,Draft,endo-atten.prs
ENDOATTNTASK,7 DVA,584,535,>,INVALID 20%,Yellow,-7,J,J,CORRECT,1265,Draft,endo-atten.prs
ENDOATTNTASK,7 DVA,585,338,>,VALID 80%,Yellow,7,J,J,CORRECT,912,Draft,endo-atten.prs
ENDOATTNTASK,7 DVA,586,412,<,INVALID 20%,Green,7,J,J,CORRECT,988,Draft,endo-atten.prs
ENDOATTNTASK,7 DVA,587,451,>,VALID 80%,Red,7,F,F,CORRECT,1149,Draft,endo-atten.prs
ENDOATTNTASK,7 DVA,588,512,+,NEUTRAL 50%,Green,-7,J,J,CORRECT,888,Draft,endo-atten.prs
ENDOATTNTASK,7 DVA,589,436,>,VALID 80%,Blue,7,F,F,CORRECT,714,Draft,endo-atten.prs
ENDOATTNTASK,7 DVA,590,463,>,VALID 80%,Green,7,J,J,CORRECT,637,Draft,endo-atten.prs
ENDOATTNTASK,7 DVA,591,359,<,VALID 80%,Green,-7,J,J,CORRECT,1291,Draft,endo-atten.prs
ENDOATTNTASK,7 DVA,592,457,>,VALID 80%,Red,7,F,F,CORRECT,1293,Draft,endo-atten.prs
ENDOATTNTASK,7 DVA,593,440,>,VALID 80%,Green,7,J,J,CORRECT,710,Draft,endo-atten.prs
ENDOATTNTASK,7 DVA,594,468,>,VALID 80%,Red,7,F,F,CORRECT,582,Draft,endo-atten.prs
ENDOATTNTASK,7 DVA,595,380,<,VALID 80%,Red,-7,F,F,CORRECT,1170,Draft,endo-atten.prs
ENDOATTNTASK,7 DVA,596,480,>,VALID 80%,Green,7,J,J,CORRECT,1270,Draft,endo-atten.prs
ENDOATTNTASK,7 DVA,597,465,<,VALID 80%,Red,-7,F,F,CORRECT,985,Draft,endo-atten.prs
ENDOATTNTASK,7 DVA,598,531,>,INVALID 20%,Green,-7,J,J,CORRECT,719,Draft,endo-atten.prs
ENDOATTNTASK,7 DVA,599,442,>,VALID 80%,Blue,7,F,F,CORRECT,958,Draft,endo-atten.prs
ENDOATTNTASK,7 DVA,600,399,<,VALID 80%,Red,-7,F,F,CORRECT,601,Draft,endo-atten.prs
ENDOATTNTASK,7 DVA,601,377,<,VALID 80%,Red,-7,F,F,CORRECT,623,Draft,endo-atten.prs
ENDOATTNTASK,7 DVA,602,521,>,INVALID 20%,Yellow,-7,J,J,CORRECT,729,Draft,endo-atten.prs
ENDOATTNTASK,7 DVA,603,530,<,INVALID 20%,Red,7,F,F,CORRECT,920,Draft,endo-atten.prs
ENDOATTNTASK,7 DVA,604,395,+,NEUTRAL 50%,Red,-7,F,F,CORRECT,655,Draft,endo-atten.prs
ENDOATTNTASK,7 DVA,605,438,+,NEUTRAL 50%,Red,-7,F,F,CORRECT,1062,Draft,endo-atten.prs
ENDOATTNTASK,7 DVA,606,382,<,VALID 80%,Blue,-7,F,F,CORRECT,1118,Draft,endo-atten.prs
ENDOATTNTASK,7 DVA,607,451,>,VALID 80%,Yellow,7,J,J,CORRECT,799,Draft,endo-atten.prs
ENDOATTNTASK,7 DVA,608,518,>,INVALID 20%,Blue,-7,F,F,CORRECT,582,Draft,endo-atten.prs
ENDOATTNTASK,7 DVA,609,396,<,VALID 80%,Blue,-7,F,F,CORRECT,804,Draft,endo-atten.prs
ENDOATTNTASK,7 DVA,610,419,+,NEUTRAL 50%,Blue,-7,F,F,CORRECT,731,Draft,endo-atten.prs
ENDOATTNTASK,7 DVA,611,440,<,INVALID 20%,Red,7,F,F,CORRECT,910,Draft,endo-atten.prs
ENDOATTNTASK,7 DVA,612,363,<,VALID 80%,Blue,-7,F,F,CORRECT,937,Draft,endo-atten.prs
ENDOATTNTASK,7 DVA,613,376,+,NEUTRAL 50%,Blue,7,F,F,CORRECT,1224,Draft,endo-atten.prs
ENDOATTNTASK,7 DVA,614,511,+,NEUTRAL 50%,Green,7,J,J,CORRECT,739,Draft,endo-atten.prs
ENDOATTNTASK,7 DVA,615,515,+,NEUTRAL 50%,Blue,-7,F,F,CORRECT,985,Draft,endo-atten.prs
ENDOATTNTASK,7 DVA,616,373,<,VALID 80%,Blue,-7,F,F,CORRECT,677,Draft,endo-atten.prs
ENDOATTNTASK,7 DVA,617,386,+,NEUTRAL 50%,Red,7,F,F,CORRECT,1164,Draft,endo-atten.prs
ENDOATTNTASK,7 DVA,618,545,>,INVALID 20%,Yellow,-7,J,J,CORRECT,505,Draft,endo-atten.prs
ENDOATTNTASK,7 DVA,619,380,+,NEUTRAL 50%,Yellow,7,J,J,CORRECT,1220,Draft,endo-atten.prs
ENDOATTNTASK,7 DVA,620,385,<,VALID 80%,Green,-7,J,J,CORRECT,515,Draft,endo-atten.prs
ENDOATTNTASK,7 DVA,621,402,+,NEUTRAL 50%,Yellow,7,J,J,CORRECT,898,Draft,endo-atten.prs
ENDOATTNTASK,7 DVA,622,418,<,INVALID 20%,Yellow,7,J,J,CORRECT,1132,Draft,endo-atten.prs
ENDOATTNTASK,7 DVA,623,516,+,NEUTRAL 50%,Blue,7,F,F,CORRECT,734,Draft,endo-atten.prs
ENDOATTNTASK,7 DVA,624,361,>,VALID 80%,Red,7,F,F,CORRECT,1039,Draft,endo-atten.prs
ENDOATTNTASK,7 DVA,625,511,+,NEUTRAL 50%,Green,-7,J,J,CORRECT,939,Draft,endo-atten.prs
ENDOATTNTASK,7 DVA,626,482,<,VALID 80%,Blue,-7,F,F,CORRECT,1118,Draft,endo-atten.prs
ENDOATTNTASK,7 DVA,627,372,<,VALID 80%,Blue,-7,F,F,CORRECT,628,Draft,endo-atten.prs
ENDOATTNTASK,7 DVA,628,477,<,VALID 80%,Yellow,-7,J,J,CORRECT,723,Draft,endo-atten.prs
ENDOATTNTASK,7 DVA,629,482,>,VALID 80%,Blue,7,F,F,CORRECT,1268,Draft,endo-atten.prs
ENDOATTNTASK,7 DVA,630,498,<,VALID 80%,Yellow,-7,J,J,CORRECT,1152,Draft,endo-atten.prs
ENDOATTNTASK,7 DVA,631,419,>,INVALID 20%,Yellow,-7,J,J,CORRECT,781,Draft,endo-atten.prs
ENDOATTNTASK,7 DVA,632,492,<,VALID 80%,Blue,-7,F,F,CORRECT,858,Draft,endo-atten.prs
ENDOATTNTASK,7 DVA,633,437,+,NEUTRAL 50%,Blue,-7,F,F,CORRECT,963,Draft,endo-atten.prs
ENDOATTNTASK,7 DVA,634,534,+,NEUTRAL 50%,Yellow,-7,J,J,CORRECT,816,Draft,endo-atten.prs
ENDOATTNTASK,7 DVA,635,367,>,VALID 80%,Green,7,J,J,CORRECT,833,Draft,endo-atten.prs
ENDOATTNTASK,7 DVA,636,375,<,VALID 80%,Yellow,-7,J,J,CORRECT,1175,Draft,endo-atten.prs
ENDOATTNTASK,7 DVA,637,492,<,VALID 80%,Blue,-7,F,F,CORRECT,958,Draft,endo-atten.prs
ENDOATTNTASK,7 DVA,638,438,>,VALID 80%,Yellow,7,J,J,CORRECT,1262,Draft,endo-atten.prs
ENDOATTNTASK,7 DVA,639,366,>,VALID 80%,Green,7,J,J,CORRECT,1134,Draft,endo-atten.prs
ENDOATTNTASK,7 DVA,640,440,>,VALID 80%,Red,7,F,F,CORRECT,710,Draft,endo-atten.prs
ENDOATTNTASK,7 DVA,641,458,<,VALID 80%,Green,-7,J,J,CORRECT,1292,Draft,endo-atten.prs
ENDOATTNTASK,7 DVA,642,453,>,VALID 80%,Red,7,F,F,CORRECT,1097,Draft,endo-atten.prs
ENDOATTNTASK,7 DVA,643,455,<,VALID 80%,Green,-7,J,J,CORRECT,695,Draft,endo-atten.prs
ENDOATTNTASK,7 DVA,644,495,+,NEUTRAL 50%,Red,-7,F,F,CORRECT,805,Draft,endo-atten.prs
ENDOATTNTASK,7 DVA,645,455,>,VALID 80%,Yellow,7,J,J,CORRECT,1245,Draft,endo-atten.prs
ENDOATTNTASK,7 DVA,646,364,>,VALID 80%,Yellow,7,J,J,CORRECT,886,Draft,endo-atten.prs
ENDOATTNTASK,7 DVA,647,527,+,NEUTRAL 50%,Red,-7,F,F,CORRECT,1023,Draft,endo-atten.prs
ENDOATTNTASK,7 DVA,648,496,<,VALID 80%,Green,-7,J,J,CORRECT,1204,Draft,endo-atten.prs
ENDOATTNTASK,7 DVA,649,480,+,NEUTRAL 50%,Blue,7,F,F,CORRECT,920,Draft,endo-atten.prs
ENDOATTNTASK,7 DVA,650,522,+,NEUTRAL 50%,Green,-7,J,J,CORRECT,578,Draft,endo-atten.prs
ENDOATTNTASK,7 DVA,651,453,>,INVALID 20%,Green,-7,J,J,CORRECT,697,Draft,endo-atten.prs
ENDOATTNTASK,7 DVA,652,343,>,VALID 80%,Yellow,7,J,J,CORRECT,1257,Draft,endo-atten.prs
ENDOATTNTASK,7 DVA,653,439,>,INVALID 20%,Green,-7,J,J,CORRECT,1061,Draft,endo-atten.prs
ENDOATTNTASK,7 DVA,654,519,+,NEUTRAL 50%,Red,-7,F,F,CORRECT,1081,Draft,endo-atten.prs
ENDOATTNTASK,7 DVA,655,380,+,NEUTRAL 50%,Blue,7,F,F,CORRECT,570,Draft,endo-atten.prs
ENDOATTNTASK,7 DVA,656,360,<,VALID 80%,Red,-7,F,F,CORRECT,1140,Draft,endo-atten.prs
ENDOATTNTASK,7 DVA,657,397,<,VALID 80%,Blue,-7,F,F,CORRECT,803,Draft,endo-atten.prs
ENDOATTNTASK,7 DVA,658,404,+,NEUTRAL 50%,Red,7,F,F,CORRECT,1296,Draft,endo-atten.prs
ENDOATTNTASK,7 DVA,659,373,<,VALID 80%,Red,-7,F,F,CORRECT,677,Draft,endo-atten.prs
ENDOATTNTASK,7 DVA,660,454,>,INVALID 20%,Blue,-7,F,F,CORRECT,1296,Draft,endo-atten.prs
ENDOATTNTASK,7 DVA,661,420,+,NEUTRAL 50%,Blue,7,F,F,CORRECT,680,Draft,endo-atten.prs
ENDOATTNTASK,7 DVA,662,459,>,INVALID 20%,Blue,-7,F,F,CORRECT,1141,Draft,endo-atten.prs
ENDOATTNTASK,7 DVA,663,362,<,VALID 80%,Red,-7,F,F,CORRECT,888,Draft,endo-atten.prs
ENDOATTNTASK,7 DVA,664,379,>,VALID 80%,Blue,7,F,F,CORRECT,821,Draft,endo-atten.prs
ENDOATTNTASK,7 DVA,665,485,>,VALID 80%,Yellow,7,J,J,CORRECT,815,Draft,endo-atten.prs
ENDOATTNTASK,7 DVA,666,522,>,INVALID 20%,Blue,-7,F,F,CORRECT,978,Draft,endo-atten.prs
ENDOATTNTASK,7 DVA,667,407,+,NEUTRAL 50%,Blue,7,F,F,CORRECT,1143,Draft,endo-atten.prs
ENDOATTNTASK,7 DVA,668,386,<,VALID 80%,Red,-7,F,F,CORRECT,814,Draft,endo-atten.prs
ENDOATTNTASK,7 DVA,669,387,<,VALID 80%,Red,-7,F,F,CORRECT,613,Draft,endo-atten.prs
ENDOATTNTASK,7 DVA,670,350,>,VALID 80%,Blue,7,F,F,CORRECT,1000,Draft,endo-atten.prs
ENDOATTNTASK,7 DVA,671,481,>,VALID 80%,Yellow,7,J,J,CORRECT,569,Draft,endo-atten.prs
ENDOATTNTASK,7 DVA,672,405,+,NEUTRAL 50%,Yellow,-7,J,J,CORRECT,995,Draft,endo-atten.prs
ENDOATTNTASK,7 DVA,673,499,+,NEUTRAL 50%,Red,-7,F,F,CORRECT,951,Draft,endo-atten.prs
ENDOATTNTASK,7 DVA,674,424,+,NEUTRAL 50%,Red,-7,F,F,CORRECT,676,Draft,endo-atten.prs
ENDOATTNTASK,7 DVA,675,461,<,VALID 80%,Yellow,-7,J,J,CORRECT,1139,Draft,endo-atten.prs
ENDOATTNTASK,7 DVA,676,394,+,NEUTRAL 50%,Green,-7,J,J,CORRECT,1106,Draft,endo-atten.prs
ENDOATTNTASK,7 DVA,677,456,<,VALID 80%,Red,-7,F,F,CORRECT,544,Draft,endo-atten.prs
ENDOATTNTASK,7 DVA,678,355,>,VALID 80%,Red,7,F,F,CORRECT,895,Draft,endo-atten.prs
ENDOATTNTASK,7 DVA,679,454,<,VALID 80%,Green,-7,J,J,CORRECT,846,Draft,endo-atten.prs
ENDOATTNTASK,7 DVA,680,474,<,VALID 80%,Blue,-7,F,F,CORRECT,1226,Draft,endo-atten.prs
ENDOATTNTASK,7 DVA,681,377,<,VALID 80%,Red,-7,F,F,CORRECT,873,Draft,endo-atten.prs
ENDOATTNTASK,7 DVA,682,472,>,VALID 80%,Yellow,7,J,J,CORRECT,528,Draft,endo-atten.prs
ENDOATTNTASK,7 DVA,683,452,<,VALID 80%,Red,-7,F,F,CORRECT,1098,Draft,endo-atten.prs
ENDOATTNTASK,7 DVA,684,538,+,NEUTRAL 50%,Yellow,-7,J,J,CORRECT,1062,Draft,endo-atten.prs
ENDOATTNTASK,7 DVA,685,491,<,VALID 80%,Blue,-7,F,F,CORRECT,909,Draft,endo-atten.prs
ENDOATTNTASK,7 DVA,686,450,>,INVALID 20%,Red,-7,F,F,CORRECT,750,Draft,endo-atten.prs
ENDOATTNTASK,7 DVA,687,360,>,VALID 80%,Red,7,F,F,CORRECT,990,Draft,endo-atten.prs
ENDOATTNTASK,7 DVA,688,336,>,VALID 80%,Blue,7,F,F,CORRECT,664,Draft,endo-atten.prs
ENDOATTNTASK,7 DVA,689,508,<,INVALID 20%,Green,7,J,J,CORRECT,792,Draft,endo-atten.prs
ENDOATTNTASK,7 DVA,690,487,<,VALID 80%,Blue,-7,F,F,CORRECT,563,Draft,endo-atten.prs
ENDOATTNTASK,7 DVA,691,458,>,INVALID 20%,Red,-7,F,F,CORRECT,792,Draft,endo-atten.prs
ENDOATTNTASK,7 DVA,692,407,<,INVALID 20%,Blue,7,F,F,CORRECT,1243,Draft,endo-atten.prs
ENDOATTNTASK,7 DVA,693,412,+,NEUTRAL 50%,Blue,-7,F,F,CORRECT,738,Draft,endo-atten.prs
ENDOATTNTASK,7 DVA,694,518,+,NEUTRAL 50%,Green,7,J,J,CORRECT,1282,Draft,endo-atten.prs
ENDOATTNTASK,7 DVA,695,396,<,VALID 80%,Yellow,-7,J,J,CORRECT,1054,Draft,endo-atten.prs
ENDOATTNTASK,7 DVA,696,360,<,VALID 80%,Green,-7,J,J,CORRECT,840,Draft,endo-atten.prs
ENDOATTNTASK,7 DVA,697,461,>,VALID 80%,Blue,7,F,F,CORRECT,989,Draft,endo-atten.prs
ENDOATTNTASK,7 DVA,698,386,<,VALID 80%,Red,-7,F,F,CORRECT,814,Draft,endo-atten.prs
ENDOATTNTASK,7 DVA,699,423,+,NEUTRAL 50%,Red,-7,F,F,CORRECT,1077,Draft,endo-atten.prs
ENDOATTNTASK,7 DVA,700,362,>,VALID 80%,Blue,7,F,F,CORRECT,1088,Draft,endo-atten.prs
ENDOATTNTASK,7 DVA,701,403,+,NEUTRAL 50%,Blue,-7,F,F,CORRECT,1197,Draft,endo-atten.prs
ENDOATTNTASK,7 DVA,702,517,+,NEUTRAL 50%,Green,-7,J,J,CORRECT,1233,Draft,endo-atten.prs
ENDOATTNTASK,7 DVA,703,469,<,VALID 80%,Blue,-7,F,F,CORRECT,931,Draft,endo-atten.prs
ENDOATTNTASK,7 DVA,704,472,>,VALID 80%,Green,7,J,J,CORRECT,928,Draft,endo-atten.prs
ENDOATTNTASK,7 DVA,705,355,<,VALID 80%,Yellow,-7,J,J,CORRECT,945,Draft,endo-atten.prs
ENDOATTNTASK,7 DVA,706,487,<,VALID 80%,Blue,-7,F,F,CORRECT,713,Draft,endo-atten.prs
ENDOATTNTASK,7 DVA,707,451,>,VALID 80%,Yellow,7,J,J,CORRECT,699,Draft,endo-atten.prs
ENDOATTNTASK,7 DVA,708,454,<,VALID 80%,Blue,-7,F,F,CORRECT,1146,Draft,endo-atten.prs
ENDOATTNTASK,7 DVA,709,474,<,VALID 80%,Green,-7,J,J,CORRECT,576,Draft,endo-atten.prs
ENDOATTNTASK,7 DVA,710,529,>,INVALID 20%,Blue,-7,F,F,CORRECT,1021,Draft,endo-atten.prs
ENDOATTNTASK,7 DVA,711,435,>,INVALID 20%,Blue,-7,F,F,CORRECT,1265,Draft,endo-atten.prs
ENDOATTNTASK,7 DVA,712,403,+,NEUTRAL 50%,Red,-7,F,F,CORRECT,847,Draft,endo-atten.prs
ENDOATTNTASK,7 DVA,713,432,+,NEUTRAL 50%,Blue,-7,F,F,CORRECT,768,Draft,endo-atten.prs
ENDOATTNTASK,7 DVA,714,467,>,VALID 80%,Yellow,7,J,J,CORRECT,1183,Draft,endo-atten.prs
ENDOATTNTASK,7 DVA,715,492,+,NEUTRAL 50%,Blue,7,F,F,CORRECT,808,Draft,endo-atten.prs
ENDOATTNTASK,7 DVA,716,457,<,VALID 80%,Green,-7,J,J,CORRECT,543,Draft,endo-atten.prs
ENDOATTNTASK,7 DVA,717,449,>,VALID 80%,Blue,7,F,F,CORRECT,1201,Draft,endo-atten.prs
ENDOATTNTASK,7 DVA,718,509,<,INVALID 20%,Green,7,J,J,CORRECT,541,Draft,endo-atten.prs
ENDOATTNTASK,7 DVA,719,486,+,NEUTRAL 50%,Red,7,F,F,CORRECT,814,Draft,endo-atten.prs
ENDOATTNTASK,7 DVA,720,393,+,NEUTRAL 50%,Red,-7,F,F,CORRECT,857,Draft,endo-atten.prs
ENDOATTNTASK,7 DVA,721,352,<,VALID 80%,Blue,-7,F,F,CORRECT,748,Draft,endo-atten.prs
ENDOATTNTASK,7 DVA,722,526,<,INVALID 20%,Yellow,7,J,J,CORRECT,1174,Draft,endo-atten.prs
ENDOATTNTASK,7 DVA,723,383,<,VALID 80%,Yellow,-7,J,J,CORRECT,567,Draft,endo-atten.prs
ENDOATTNTASK,7 DVA,724,559,>,INVALID 20%,Blue,-7,F,F,CORRECT,1291,Draft,endo-atten.prs
ENDOATTNTASK,7 DVA,725,378,+,NEUTRAL 50%,Blue,7,F,F,CORRECT,972,Draft,endo-atten.prs
ENDOATTNTASK,7 DVA,726,412,+,NEUTRAL 50%,Blue,7,F,F,CORRECT,1188,Draft,endo-atten.prs
ENDOATTNTASK,7 DVA,727,464,>,VALID 80%,Green,7,J,J,CORRECT,1036,Draft,endo-atten.prs
ENDOATTNTASK,7 DVA,728,391,+,NEUTRAL 50%,Green,-7,J,J,CORRECT,1159,Draft,endo-atten.prs
ENDOATTNTASK,7 DVA,729,415,<,INVALID 20%,Green,7,J,J,CORRECT,885,Draft,endo-atten.prs
ENDOATTNTASK,7 DVA,730,404,+,NEUTRAL 50%,Yellow,-7,J,J,CORRECT,1196,Draft,endo-atten.prs
ENDOATTNTASK,7 DVA,731,472,<,VALID 80%,Blue,-7,F,F,CORRECT,1178,Draft,endo-atten.prs
ENDOATTNTASK,7 DVA,732,415,<,INVALID 20%,Red,7,F,F,CORRECT,1185,Draft,endo-atten.prs
ENDOATTNTASK,7 DVA,733,462,>,VALID 80%,Yellow,7,J,J,CORRECT,1088,Draft,endo-atten.prs
ENDOATTNTASK,7 DVA,734,405,<,INVALID 20%,Yellow,7,J,J,CORRECT,945,Draft,endo-atten.prs
ENDOATTNTASK,7 DVA,735,433,+,NEUTRAL 50%,Green,-7,J,J,CORRECT,967,Draft,endo-atten.prs
ENDOATTNTASK,7 DVA,736,395,<,INVALID 20%,Yellow,7,J,J,CORRECT,1105,Draft,endo-atten.prs
ENDOATTNTASK,7 DVA,737,370,>,VALID 80%,Yellow,7,J,J,CORRECT,1280,Draft,endo-atten.prs
ENDOATTNTASK,7 DVA,738,522,<,INVALID 20%,Red,7,F,F,CORRECT,1128,Draft,endo-atten.prs
ENDOATTNTASK,7 DVA,739,507,+,NEUTRAL 50%,Yellow,-7,J,J,CORRECT,1043,Draft,endo-atten.prs
ENDOATTNTASK,7 DVA,740,391,+,NEUTRAL 50%,Green,7,J,J,CORRECT,859,Draft,endo-atten.prs
ENDOATTNTASK,7 DVA,741,379,<,VALID 80%,Yellow,-7,J,J,CORRECT,671,Draft,endo-atten.prs
ENDOATTNTASK,7 DVA,742,421,>,INVALID 20%,Yellow,-7,J,J,CORRECT,779,Draft,endo-atten.prs
ENDOATTNTASK,7 DVA,743,375,+,NEUTRAL 50%,Green,7,J,J,CORRECT,1125,Draft,endo-atten.prs
ENDOATTNTASK,7 DVA,744,339,>,VALID 80%,Yellow,7,J,J,CORRECT,661,Draft,endo-atten.prs
ENDOATTNTASK,7 DVA,745,502,<,INVALID 20%,Blue,7,F,F,CORRECT,948,Draft,endo-atten.prs
ENDOATTNTASK,7 DVA,746,352,>,VALID 80%,Red,7,F,F,CORRECT,1198,Draft,endo-atten.prs
ENDOATTNTASK,7 DVA,747,336,>,VALID 80%,Red,7,F,F,CORRECT,664,Draft,endo-atten.prs
ENDOATTNTASK,7 DVA,748,378,>,VALID 80%,Blue,7,F,F,CORRECT,722,Draft,endo-atten.prs
ENDOATTNTASK,7 DVA,749,485,<,VALID 80%,Yellow,-7,J,J,CORRECT,1115,Draft,endo-atten.prs
ENDOATTNTASK,7 DVA,750,533,+,NEUTRAL 50%,Blue,-7,F,F,CORRECT,1017,Draft,endo-atten.prs
ENDOATTNTASK,3 DVA,1,449,>,VALID 100%,Red,3,F,F,CORRECT,675,Draft,endo-atten.prs
ENDOATTNTASK,3 DVA,2,353,+,NEUTRAL 50%,Blue,3,F,F,CORRECT,1247,Draft,endo-atten.prs
ENDOATTNTASK,3 DVA,3,323,<,VALID 100%,Red,-3,F,F,CORRECT,527,Draft,endo-atten.prs
ENDOATTNTASK,3 DVA,4,294,>,VALID 100%,Blue,3,F,F,CORRECT,506,Draft,endo-atten.prs
ENDOATTNTASK,3 DVA,5,401,<,VALID 100%,Yellow,-3,J,J,CORRECT,1049,Draft,endo-atten.prs
ENDOATTNTASK,3 DVA,6,429,>,VALID 100%,Red,3,F,F,CORRECT,921,Draft,endo-atten.prs
ENDOATTNTASK,3 DVA,7,440,+,NEUTRAL 50%,Green,3,J,J,CORRECT,1060,Draft,endo-atten.prs
ENDOATTNTASK,3 DVA,8,313,+,NEUTRAL 50%,Yellow,-3,J,J,CORRECT,537,Draft,endo-atten.prs
ENDOATTNTASK,3 DVA,9,295,>,VALID 100%,Green,3,J,J,CORRECT,1105,Draft,endo-atten.prs
ENDOATTNTASK,3 DVA,10,314,>,VALID 100%,Yellow,3,J,J,CORRECT,1286,Draft,endo-atten.prs
ENDOATTNTASK,3 DVA,1,466,+,NEUTRAL 50%,Yellow,3,J,J,CORRECT,558,Draft,endo-atten.prs
ENDOATTNTASK,3 DVA,2,301,<,VALID 100%,Green,-3,J,J,CORRECT,849,Draft,endo-atten.prs
ENDOATTNTASK,3 DVA,3,431,>,VALID 100%,Blue,3,F,F,CORRECT,719,Draft,endo-atten.prs
ENDOATTNTASK,3 DVA,4,432,<,VALID 100%,Green,-3,J,J,CORRECT,1218,Draft,endo-atten.prs
ENDOATTNTASK,3 DVA,5,297,>,VALID 100%,Yellow,3,J,J,CORRECT,903,Draft,endo-atten.prs
ENDOATTNTASK,3 DVA,6,455,+,NEUTRAL 50%,Blue,-3,F,F,CORRECT,895,Draft,endo-atten.prs
ENDOATTNTASK,3 DVA,7,392,<,VALID 100%,Yellow,-3,J,J,CORRECT,558,Draft,endo-atten.prs
ENDOATTNTASK,3 DVA,8,319,>,VALID 100%,Yellow,3,J,J,CORRECT,1231,Draft,endo-atten.prs
ENDOATTNTASK,3 DVA,9,360,+,NEUTRAL 50%,Green,3,J,J,CORRECT,540,Draft,endo-atten.prs
ENDOATTNTASK,3 DVA,10,400,<,VALID 100%,Red,-3,F,F,CORRECT,600,Draft,endo-atten.prs
ENDOATTNTASK,3 DVA,1,469,>,VALID 100%,Green,3,J,J,CORRECT,605,Draft,endo-atten.prs
ENDOATTNTASK,3 DVA,2,425,>,VALID 100%,Red,3,F,F,CORRECT,675,Draft,endo-atten.prs
ENDOATTNTASK,3 DVA,3,353,+,NEUTRAL 50%,Blue,3,F,F,CORRECT,1247,Draft,endo-atten.prs
ENDOATTNTASK,3 DVA,4,323,<,VALID 100%,Red,-3,F,F,CORRECT,527,Draft,endo-atten.prs
ENDOATTNTASK,3 DVA,5,294,>,VALID 100%,Blue,3,F,F,CORRECT,506,Draft,endo-atten.prs
ENDOATTNTASK,3 DVA,6,401,<,VALID 100%,Yellow,-3,J,J,CORRECT,1049,Draft,endo-atten.prs
ENDOATTNTASK,3 DVA,7,429,>,VALID 100%,Red,3,F,F,CORRECT,921,Draft,endo-atten.prs
ENDOATTNTASK,3 DVA,8,440,+,NEUTRAL 50%,Green,3,J,J,CORRECT,1060,Draft,endo-atten.prs
ENDOATTNTASK,3 DVA,9,313,+,NEUTRAL 50%,Yellow,-3,J,J,CORRECT,537,Draft,endo-atten.prs
ENDOATTNTASK,3 DVA,10,295,>,VALID 100%,Green,3,J,J,CORRECT,1105,Draft,endo-atten.prs
ENDOATTNTASK,3 DVA,1,438,>,VALID 100%,Yellow,3,J,J,CORRECT,1286,Draft,endo-atten.prs
ENDOATTNTASK,3 DVA,2,342,+,NEUTRAL 50%,Yellow,3,J,J,CORRECT,558,Draft,endo-atten.prs
ENDOATTNTASK,3 DVA,3,301,<,VALID 100%,Green,-3,J,J,CORRECT,849,Draft,endo-atten.prs
ENDOATTNTASK,3 DVA,4,431,>,VALID 100%,Blue,3,F,F,CORRECT,719,Draft,endo-atten.prs
ENDOATTNTASK,3 DVA,5,432,<,VALID 100%,Green,-3,J,J,CORRECT,1218,Draft,endo-atten.prs
ENDOATTNTASK,3 DVA,6,297,>,VALID 100%,Yellow,3,J,J,CORRECT,903,Draft,endo-atten.prs
ENDOATTNTASK,3 DVA,7,455,+,NEUTRAL 50%,Blue,-3,F,F,CORRECT,895,Draft,endo-atten.prs
ENDOATTNTASK,3 DVA,8,392,<,VALID 100%,Yellow,-3,J,J,CORRECT,558,Draft,endo-atten.prs
ENDOATTNTASK,3 DVA,9,319,>,VALID 100%,Yellow,3,J,J,CORRECT,1231,Draft,endo-atten.prs
ENDOATTNTASK,3 DVA,10,360,+,NEUTRAL 50%,Green,3,J,J,CORRECT,540,Draft,endo-atten.prs
ENDOATTNTASK,3 DVA,1,469,>,VALID 100%,Green,3,J,J,CORRECT,605,Draft,endo-atten.prs
ENDOATTNTASK,3 DVA,2,425,>,VALID 100%,Red,3,F,F,CORRECT,675,Draft,endo-atten.prs
ENDOATTNTASK,3 DVA,3,353,+,NEUTRAL 50%,Blue,3,F,F,CORRECT,1247,Draft,endo-atten.prs
ENDOATTNTASK,3 DVA,4,323,<,VALID 100%,Red,-3,F,F,CORRECT,527,Draft,endo-atten.prs
ENDOATTNTASK,3 DVA,5,294,>,VALID 100%,Blue,3,F,F,CORRECT,506,Draft,endo-atten.prs
ENDOATTNTASK,3 DVA,6,401,<,VALID 100%,Yellow,-3,J,J,CORRECT,1049,Draft,endo-atten.prs
ENDOATTNTASK,3 DVA,7,429,>,VALID 100%,Red,3,F,F,CORRECT,921,Draft,endo-atten.prs
ENDOATTNTASK,3 DVA,8,440,+,NEUTRAL 50%,Green,3,J,J,CORRECT,1060,Draft,endo-atten.prs
ENDOATTNTASK,3 DVA,9,313,+,NEUTRAL 50%,Yellow,-3,J,J,CORRECT,537,Draft,endo-atten.prs
ENDOATTNTASK,3 DVA,10,295,>,VALID 100%,Green,3,J,J,CORRECT,1105,Draft,endo-atten.prs
ENDOATTNTASK,3 DVA,1,438,>,VALID 100%,Yellow,3,J,J,CORRECT,1286,Draft,endo-atten.prs
ENDOATTNTASK,3 DVA,2,342,+,NEUTRAL 50%,Yellow,3,J,J,CORRECT,558,Draft,endo-atten.prs
ENDOATTNTASK,3 DVA,3,301,<,VALID 100%,Green,-3,J,J,CORRECT,849,Draft,endo-atten.prs
ENDOATTNTASK,3 DVA,4,431,>,VALID 100%,Blue,3,F,F,CORRECT,719,Draft,endo-atten.prs
ENDOATTNTASK,3 DVA,5,432,<,VALID 100%,Green,-3,J,J,CORRECT,1218,Draft,endo-atten.prs
ENDOATTNTASK,3 DVA,6,297,>,VALID 100%,Yellow,3,J,J,CORRECT,903,Draft,endo-atten.prs
ENDOATTNTASK,3 DVA,7,455,+,NEUTRAL 50%,Blue,-3,F,F,CORRECT,895,Draft,endo-atten.prs
ENDOATTNTASK,3 DVA,8,392,<,VALID 100%,Yellow,-3,J,J,CORRECT,558,Draft,endo-atten.prs
ENDOATTNTASK,3 DVA,9,319,>,VALID 100%,Yellow,3,J,J,CORRECT,1231,Draft,endo-atten.prs
ENDOATTNTASK,3 DVA,10,360,+,NEUTRAL 50%,Green,3,J,J,CORRECT,540,Draft,endo-atten.prs
ENDOATTNTASK,3 DVA,1,474,<,VALID 100%,Red,-3,F,F,CORRECT,600,Draft,endo-atten.prs
ENDOATTNTASK,3 DVA,2,447,+,NEUTRAL 50%,Yellow,3,J,J,CORRECT,1003,Draft,endo-atten.prs
ENDOATTNTASK,3 DVA,3,390,<,VALID 100%,Red,-3,F,F,CORRECT,1210,Draft,endo-atten.prs
ENDOATTNTASK,3 DVA,4,440,+,NEUTRAL 50%,Yellow,3,J,J,CORRECT,910,Draft,endo-atten.prs
ENDOATTNTASK,3 DVA,5,427,>,VALID 100%,Blue,3,F,F,CORRECT,1173,Draft,endo-atten.prs
ENDOATTNTASK,3 DVA,6,326,<,VALID 100%,Blue,-3,F,F,CORRECT,874,Draft,endo-atten.prs
ENDOATTNTASK,3 DVA,7,443,+,NEUTRAL 50%,Green,-3,J,J,CORRECT,957,Draft,endo-atten.prs
ENDOATTNTASK,3 DVA,8,302,<,VALID 100%,Green,-3,J,J,CORRECT,898,Draft,endo-atten.prs
ENDOATTNTASK,3 DVA,9,338,+,NEUTRAL 50%,Yellow,3,J,J,CORRECT,1212,Draft,endo-atten.prs
ENDOATTNTASK,3 DVA,10,330,>,VALID 100%,Yellow,3,J,J,CORRECT,670,Draft,endo-atten.prs
ENDOATTNTASK,3 DVA,1,469,>,VALID 100%,Green,3,J,J,CORRECT,605,Draft,endo-atten.prs
ENDOATTNTASK,3 DVA,2,425,>,VALID 100%,Red,3,F,F,CORRECT,675,Draft,endo-atten.prs
ENDOATTNTASK,3 DVA,3,353,+,NEUTRAL 50%,Blue,3,F,F,CORRECT,1247,Draft,endo-atten.prs
ENDOATTNTASK,3 DVA,4,323,<,VALID 100%,Red,-3,F,F,CORRECT,527,Draft,endo-atten.prs
ENDOATTNTASK,3 DVA,5,294,>,VALID 100%,Blue,3,F,F,CORRECT,506,Draft,endo-atten.prs
ENDOATTNTASK,3 DVA,6,401,<,VALID 100%,Yellow,-3,J,J,CORRECT,1049,Draft,endo-atten.prs
ENDOATTNTASK,3 DVA,7,429,>,VALID 100%,Red,3,F,F,CORRECT,921,Draft,endo-atten.prs
ENDOATTNTASK,3 DVA,8,440,+,NEUTRAL 50%,Green,3,J,J,CORRECT,1060,Draft,endo-atten.prs
ENDOATTNTASK,3 DVA,9,313,+,NEUTRAL 50%,Yellow,-3,J,J,CORRECT,537,Draft,endo-atten.prs
ENDOATTNTASK,3 DVA,10,295,>,VALID 100%,Green,3,J,J,CORRECT,1105,Draft,endo-atten.prs
ENDOATTNTASK,3 DVA,1,438,>,VALID 100%,Yellow,3,J,J,CORRECT,1286,Draft,endo-atten.prs
ENDOATTNTASK,3 DVA,2,342,+,NEUTRAL 50%,Yellow,3,J,J,CORRECT,558,Draft,endo-atten.prs
ENDOATTNTASK,3 DVA,3,301,<,VALID 100%,Green,-3,J,J,CORRECT,849,Draft,endo-atten.prs
ENDOATTNTASK,3 DVA,4,431,>,VALID 100%,Blue,3,F,F,CORRECT,719,Draft,endo-atten.prs
ENDOATTNTASK,3 DVA,5,432,<,VALID 100%,Green,-3,J,J,CORRECT,1218,Draft,endo-atten.prs
ENDOATTNTASK,3 DVA,6,297,>,VALID 100%,Yellow,3,J,J,CORRECT,903,Draft,endo-atten.prs
ENDOATTNTASK,3 DVA,7,455,+,NEUTRAL 50%,Blue,-3,F,F,CORRECT,895,Draft,endo-atten.prs
ENDOATTNTASK,3 DVA,8,392,<,VALID 100%,Yellow,-3,J,J,CORRECT,558,Draft,endo-atten.prs
ENDOATTNTASK,3 DVA,9,319,>,VALID 100%,Yellow,3,J,J,CORRECT,1231,Draft,endo-atten.prs
ENDOATTNTASK,3 DVA,10,360,+,NEUTRAL 50%,Green,3,J,J,CORRECT,540,Draft,endo-atten.prs
ENDOATTNTASK,3 DVA,1,469,>,VALID 100%,Green,3,J,J,CORRECT,605,Draft,endo-atten.prs
ENDOATTNTASK,3 DVA,2,425,>,VALID 100%,Red,3,F,F,CORRECT,675,Draft,endo-atten.prs
ENDOATTNTASK,3 DVA,3,353,+,NEUTRAL 50%,Blue,3,F,F,CORRECT,1247,Draft,endo-atten.prs
ENDOATTNTASK,3 DVA,4,323,<,VALID 100%,Red,-3,F,F,CORRECT,527,Draft,endo-atten.prs
ENDOATTNTASK,3 DVA,5,294,>,VALID 100%,Blue,3,F,F,CORRECT,506,Draft,endo-atten.prs
ENDOATTNTASK,3 DVA,6,401,<,VALID 100%,Yellow,-3,J,J,CORRECT,1049,Draft,endo-atten.prs
ENDOATTNTASK,3 DVA,7,429,>,VALID 100%,Red,3,F,F,CORRECT,921,Draft,endo-atten.prs
ENDOATTNTASK,3 DVA,8,440,+,NEUTRAL 50%,Green,3,J,J,CORRECT,1060,Draft,endo-atten.prs
ENDOATTNTASK,3 DVA,9,313,+,NEUTRAL 50%,Yellow,-3,J,J,CORRECT,537,Draft,endo-atten.prs
ENDOATTNTASK,3 DVA,10,295,>,VALID 100%,Green,3,J,J,CORRECT,1105,Draft,endo-atten.prs
