
TASKTYPE,ECCMAGNITUDE,TRIAL,RT,CUE,CUEVALIDITY,STIMCOLOR,STIMLOC,RESPONSE,CORRECTRESPONSE,ACCURACY,STIMWAITTIME,TAG,RULES
ENDOATTNTASK,7 DVA,1,598,+,NEUTRAL 50%,Yellow,7,J,J,CORRECT,976,Draft,EPIC
ENDOATTNTASK,7 DVA,2,453,+,NEUTRAL 50%,Red,-7,F,F,CORRECT,847,Draft,EPIC
ENDOATTNTASK,7 DVA,3,350,<,VALID 80%,Red,-7,F,F,CORRECT,1250,Draft,EPIC
ENDOATTNTASK,7 DVA,4,428,<,VALID 80%,Yellow,-7,J,J,CORRECT,672,Draft,EPIC
ENDOATTNTASK,7 DVA,5,355,>,VALID 80%,Yellow,7,J,J,CORRECT,845,Draft,EPIC
ENDOATTNTASK,7 DVA,6,349,>,VALID 80%,Yellow,7,J,J,CORRECT,1051,Draft,EPIC
ENDOATTNTASK,7 DVA,7,454,>,VALID 80%,Blue,7,F,F,CORRECT,1146,Draft,EPIC
ENDOATTNTASK,7 DVA,8,354,+,NEUTRAL 50%,Red,-7,F,F,CORRECT,796,Draft,EPIC
ENDOATTNTASK,7 DVA,9,519,>,INVALID 20%,Green,-7,J,J,CORRECT,1081,Draft,EPIC
ENDOATTNTASK,7 DVA,10,351,>,VALID 80%,Green,7,J,J,CORRECT,949,Draft,EPIC
ENDOATTNTASK,7 DVA,11,331,+,NEUTRAL 50%,Green,-7,J,J,CORRECT,1019,Draft,EPIC
ENDOATTNTASK,7 DVA,12,535,>,INVALID 20%,Blue,-7,F,F,CORRECT,1015,Draft,EPIC
ENDOATTNTASK,7 DVA,13,346,<,VALID 80%,Blue,-7,F,F,CORRECT,754,Draft,EPIC
ENDOATTNTASK,7 DVA,14,446,+,NEUTRAL 50%,Red,7,F,F,CORRECT,1204,Draft,EPIC
ENDOATTNTASK,7 DVA,15,433,+,NEUTRAL 50%,Yellow,-7,J,J,CORRECT,1217,Draft,EPIC
ENDOATTNTASK,7 DVA,16,357,>,VALID 80%,Yellow,7,J,J,CORRECT,593,Draft,EPIC
ENDOATTNTASK,7 DVA,17,527,+,NEUTRAL 50%,Red,7,F,F,CORRECT,1023,Draft,EPIC
ENDOATTNTASK,7 DVA,18,460,<,VALID 80%,Green,-7,J,J,CORRECT,540,Draft,EPIC
ENDOATTNTASK,7 DVA,19,439,+,NEUTRAL 50%,Blue,-7,F,F,CORRECT,1011,Draft,EPIC
ENDOATTNTASK,7 DVA,20,459,>,INVALID 20%,Blue,-7,F,F,CORRECT,891,Draft,EPIC
ENDOATTNTASK,7 DVA,21,361,<,VALID 80%,Blue,-7,F,F,CORRECT,939,Draft,EPIC
ENDOATTNTASK,7 DVA,22,467,+,NEUTRAL 50%,Green,-7,J,J,CORRECT,883,Draft,EPIC
ENDOATTNTASK,7 DVA,23,419,+,NEUTRAL 50%,Yellow,7,J,J,CORRECT,881,Draft,EPIC
ENDOATTNTASK,7 DVA,24,447,>,INVALID 20%,Yellow,-7,J,J,CORRECT,1153,Draft,EPIC
ENDOATTNTASK,7 DVA,25,434,+,NEUTRAL 50%,Blue,-7,F,F,CORRECT,1066,Draft,EPIC
ENDOATTNTASK,7 DVA,26,468,<,VALID 80%,Yellow,-7,J,J,CORRECT,1182,Draft,EPIC
ENDOATTNTASK,7 DVA,27,355,+,NEUTRAL 50%,Yellow,-7,J,J,CORRECT,1245,Draft,EPIC
ENDOATTNTASK,7 DVA,28,358,+,NEUTRAL 50%,Green,-7,J,J,CORRECT,842,Draft,EPIC
ENDOATTNTASK,7 DVA,29,443,<,INVALID 20%,Yellow,7,J,J,CORRECT,1157,Draft,EPIC
ENDOATTNTASK,7 DVA,30,357,<,VALID 80%,Green,-7,J,J,CORRECT,1093,Draft,EPIC
ENDOATTNTASK,7 DVA,31,460,<,VALID 80%,Blue,-7,F,F,CORRECT,1240,Draft,EPIC
ENDOATTNTASK,7 DVA,32,454,+,NEUTRAL 50%,Blue,7,F,F,CORRECT,1296,Draft,EPIC
ENDOATTNTASK,7 DVA,33,521,>,INVALID 20%,Green,-7,J,J,CORRECT,979,Draft,EPIC
ENDOATTNTASK,7 DVA,34,549,+,NEUTRAL 50%,Blue,7,F,F,CORRECT,501,Draft,EPIC
ENDOATTNTASK,7 DVA,35,352,>,VALID 80%,Red,7,F,F,CORRECT,1048,Draft,EPIC
ENDOATTNTASK,7 DVA,36,344,+,NEUTRAL 50%,Blue,-7,F,F,CORRECT,956,Draft,EPIC
ENDOATTNTASK,7 DVA,37,511,+,NEUTRAL 50%,Yellow,7,J,J,CORRECT,1189,Draft,EPIC
ENDOATTNTASK,7 DVA,38,457,<,VALID 80%,Blue,-7,F,F,CORRECT,893,Draft,EPIC
ENDOATTNTASK,7 DVA,39,450,+,NEUTRAL 50%,Yellow,-7,J,J,CORRECT,650,Draft,EPIC
ENDOATTNTASK,7 DVA,40,458,+,NEUTRAL 50%,Blue,-7,F,F,CORRECT,642,Draft,EPIC
ENDOATTNTASK,7 DVA,41,346,>,VALID 80%,Blue,7,F,F,CORRECT,954,Draft,EPIC
ENDOATTNTASK,7 DVA,42,445,+,NEUTRAL 50%,Yellow,-7,J,J,CORRECT,855,Draft,EPIC
ENDOATTNTASK,7 DVA,43,553,>,INVALID 20%,Blue,-7,F,F,CORRECT,547,Draft,EPIC
ENDOATTNTASK,7 DVA,44,460,>,VALID 80%,Green,7,J,J,CORRECT,1190,Draft,EPIC
ENDOATTNTASK,7 DVA,45,461,>,VALID 80%,Blue,7,F,F,CORRECT,539,Draft,EPIC
ENDOATTNTASK,7 DVA,46,439,+,NEUTRAL 50%,Green,-7,J,J,CORRECT,561,Draft,EPIC
ENDOATTNTASK,7 DVA,47,434,+,NEUTRAL 50%,Blue,-7,F,F,CORRECT,616,Draft,EPIC
ENDOATTNTASK,7 DVA,48,355,<,VALID 80%,Red,-7,F,F,CORRECT,1295,Draft,EPIC
ENDOATTNTASK,7 DVA,49,453,>,VALID 80%,Yellow,7,J,J,CORRECT,947,Draft,EPIC
ENDOATTNTASK,7 DVA,50,330,+,NEUTRAL 50%,Yellow,-7,J,J,CORRECT,820,Draft,EPIC
ENDOATTNTASK,7 DVA,51,423,<,VALID 80%,Blue,-7,F,F,CORRECT,1277,Draft,EPIC
ENDOATTNTASK,7 DVA,52,454,>,VALID 80%,Yellow,7,J,J,CORRECT,1096,Draft,EPIC
ENDOATTNTASK,7 DVA,53,531,+,NEUTRAL 50%,Blue,7,F,F,CORRECT,919,Draft,EPIC
ENDOATTNTASK,7 DVA,54,453,<,VALID 80%,Green,-7,J,J,CORRECT,647,Draft,EPIC
ENDOATTNTASK,7 DVA,55,360,<,VALID 80%,Yellow,-7,J,J,CORRECT,790,Draft,EPIC
ENDOATTNTASK,7 DVA,56,339,<,VALID 80%,Yellow,-7,J,J,CORRECT,661,Draft,EPIC
ENDOATTNTASK,7 DVA,57,545,>,INVALID 20%,Blue,-7,F,F,CORRECT,505,Draft,EPIC
ENDOATTNTASK,7 DVA,58,521,>,INVALID 20%,Yellow,-7,J,J,CORRECT,529,Draft,EPIC
ENDOATTNTASK,7 DVA,59,533,>,INVALID 20%,Blue,-7,F,F,CORRECT,967,Draft,EPIC
ENDOATTNTASK,7 DVA,60,367,<,VALID 80%,Red,-7,F,F,CORRECT,583,Draft,EPIC
ENDOATTNTASK,7 DVA,61,344,+,NEUTRAL 50%,Blue,-7,F,F,CORRECT,1056,Draft,EPIC
ENDOATTNTASK,7 DVA,62,348,>,VALID 80%,Red,7,F,F,CORRECT,602,Draft,EPIC
ENDOATTNTASK,7 DVA,63,345,>,VALID 80%,Blue,7,F,F,CORRECT,1205,Draft,EPIC
ENDOATTNTASK,7 DVA,64,462,>,VALID 80%,Yellow,7,J,J,CORRECT,538,Draft,EPIC
ENDOATTNTASK,7 DVA,65,419,<,INVALID 20%,Green,7,J,J,CORRECT,781,Draft,EPIC
ENDOATTNTASK,7 DVA,66,426,<,INVALID 20%,Yellow,7,J,J,CORRECT,974,Draft,EPIC
ENDOATTNTASK,7 DVA,67,541,>,INVALID 20%,Red,-7,F,F,CORRECT,1109,Draft,EPIC
ENDOATTNTASK,7 DVA,68,461,<,VALID 80%,Yellow,-7,J,J,CORRECT,1239,Draft,EPIC
ENDOATTNTASK,7 DVA,69,450,>,VALID 80%,Blue,7,F,F,CORRECT,900,Draft,EPIC
ENDOATTNTASK,7 DVA,70,334,<,VALID 80%,Red,-7,F,F,CORRECT,816,Draft,EPIC
ENDOATTNTASK,7 DVA,71,331,<,VALID 80%,Red,-7,F,F,CORRECT,1119,Draft,EPIC
ENDOATTNTASK,7 DVA,72,439,<,VALID 80%,Green,-7,J,J,CORRECT,1161,Draft,EPIC
ENDOATTNTASK,7 DVA,73,550,<,INVALID 20%,Red,7,F,F,CORRECT,750,Draft,EPIC
ENDOATTNTASK,7 DVA,74,449,+,NEUTRAL 50%,Red,7,F,F,CORRECT,1051,Draft,EPIC
ENDOATTNTASK,7 DVA,75,358,<,VALID 80%,Red,-7,F,F,CORRECT,992,Draft,EPIC
ENDOATTNTASK,7 DVA,76,540,<,INVALID 20%,Yellow,7,J,J,CORRECT,710,Draft,EPIC
ENDOATTNTASK,7 DVA,77,434,>,INVALID 20%,Yellow,-7,J,J,CORRECT,1216,Draft,EPIC
ENDOATTNTASK,7 DVA,78,364,>,VALID 80%,Yellow,7,J,J,CORRECT,736,Draft,EPIC
ENDOATTNTASK,7 DVA,79,535,+,NEUTRAL 50%,Blue,7,F,F,CORRECT,1165,Draft,EPIC
ENDOATTNTASK,7 DVA,80,369,<,VALID 80%,Blue,-7,F,F,CORRECT,981,Draft,EPIC
ENDOATTNTASK,7 DVA,81,337,<,VALID 80%,Red,-7,F,F,CORRECT,663,Draft,EPIC
ENDOATTNTASK,7 DVA,82,367,<,VALID 80%,Blue,-7,F,F,CORRECT,533,Draft,EPIC
ENDOATTNTASK,7 DVA,83,454,>,VALID 80%,Yellow,7,J,J,CORRECT,896,Draft,EPIC
ENDOATTNTASK,7 DVA,84,334,<,VALID 80%,Yellow,-7,J,J,CORRECT,1116,Draft,EPIC
ENDOATTNTASK,7 DVA,85,341,>,VALID 80%,Yellow,7,J,J,CORRECT,1259,Draft,EPIC
ENDOATTNTASK,7 DVA,86,428,<,VALID 80%,Red,-7,F,F,CORRECT,1172,Draft,EPIC
ENDOATTNTASK,7 DVA,87,451,+,NEUTRAL 50%,Green,-7,J,J,CORRECT,1099,Draft,EPIC
ENDOATTNTASK,7 DVA,88,454,+,NEUTRAL 50%,Blue,-7,F,F,CORRECT,596,Draft,EPIC
ENDOATTNTASK,7 DVA,89,517,<,INVALID 20%,Green,7,J,J,CORRECT,933,Draft,EPIC
ENDOATTNTASK,7 DVA,90,554,+,NEUTRAL 50%,Blue,7,F,F,CORRECT,1296,Draft,EPIC
ENDOATTNTASK,7 DVA,91,515,<,INVALID 20%,Green,7,J,J,CORRECT,1035,Draft,EPIC
ENDOATTNTASK,7 DVA,92,360,<,VALID 80%,Yellow,-7,J,J,CORRECT,840,Draft,EPIC
ENDOATTNTASK,7 DVA,93,431,>,VALID 80%,Red,7,F,F,CORRECT,1069,Draft,EPIC
ENDOATTNTASK,7 DVA,94,474,>,VALID 80%,Yellow,7,J,J,CORRECT,1276,Draft,EPIC
ENDOATTNTASK,7 DVA,95,512,+,NEUTRAL 50%,Blue,7,F,F,CORRECT,1138,Draft,EPIC
ENDOATTNTASK,7 DVA,96,450,+,NEUTRAL 50%,Yellow,-7,J,J,CORRECT,650,Draft,EPIC
ENDOATTNTASK,7 DVA,97,414,+,NEUTRAL 50%,Yellow,7,J,J,CORRECT,1186,Draft,EPIC
ENDOATTNTASK,7 DVA,98,462,>,VALID 80%,Red,7,F,F,CORRECT,988,Draft,EPIC
ENDOATTNTASK,7 DVA,99,366,+,NEUTRAL 50%,Blue,-7,F,F,CORRECT,1184,Draft,EPIC
ENDOATTNTASK,7 DVA,100,428,+,NEUTRAL 50%,Blue,7,F,F,CORRECT,722,Draft,EPIC
ENDOATTNTASK,7 DVA,101,347,<,VALID 80%,Red,-7,F,F,CORRECT,1153,Draft,EPIC
ENDOATTNTASK,7 DVA,102,447,<,VALID 80%,Yellow,-7,J,J,CORRECT,1053,Draft,EPIC
ENDOATTNTASK,7 DVA,103,516,+,NEUTRAL 50%,Red,7,F,F,CORRECT,834,Draft,EPIC
ENDOATTNTASK,7 DVA,104,559,>,INVALID 20%,Yellow,-7,J,J,CORRECT,591,Draft,EPIC
ENDOATTNTASK,7 DVA,105,338,<,VALID 80%,Yellow,-7,J,J,CORRECT,1212,Draft,EPIC
ENDOATTNTASK,7 DVA,106,371,>,VALID 80%,Yellow,7,J,J,CORRECT,1029,Draft,EPIC
ENDOATTNTASK,7 DVA,107,341,+,NEUTRAL 50%,Green,-7,J,J,CORRECT,759,Draft,EPIC
ENDOATTNTASK,7 DVA,108,432,>,VALID 80%,Blue,7,F,F,CORRECT,618,Draft,EPIC
ENDOATTNTASK,7 DVA,109,366,+,NEUTRAL 50%,Red,-7,F,F,CORRECT,734,Draft,EPIC
ENDOATTNTASK,7 DVA,110,435,+,NEUTRAL 50%,Yellow,-7,J,J,CORRECT,1015,Draft,EPIC
ENDOATTNTASK,7 DVA,111,542,+,NEUTRAL 50%,Red,7,F,F,CORRECT,658,Draft,EPIC
ENDOATTNTASK,7 DVA,112,330,<,VALID 80%,Red,-7,F,F,CORRECT,820,Draft,EPIC
ENDOATTNTASK,7 DVA,113,328,<,VALID 80%,Red,-7,F,F,CORRECT,872,Draft,EPIC
ENDOATTNTASK,7 DVA,114,472,>,VALID 80%,Green,7,J,J,CORRECT,728,Draft,EPIC
ENDOATTNTASK,7 DVA,115,470,>,VALID 80%,Red,7,F,F,CORRECT,880,Draft,EPIC
ENDOATTNTASK,7 DVA,116,460,<,VALID 80%,Green,-7,J,J,CORRECT,1140,Draft,EPIC
ENDOATTNTASK,7 DVA,117,453,>,VALID 80%,Red,7,F,F,CORRECT,897,Draft,EPIC
ENDOATTNTASK,7 DVA,118,353,>,VALID 80%,Red,7,F,F,CORRECT,847,Draft,EPIC
ENDOATTNTASK,7 DVA,119,355,>,VALID 80%,Blue,7,F,F,CORRECT,695,Draft,EPIC
ENDOATTNTASK,7 DVA,120,432,>,INVALID 20%,Red,-7,F,F,CORRECT,618,Draft,EPIC
ENDOATTNTASK,7 DVA,121,509,+,NEUTRAL 50%,Yellow,7,J,J,CORRECT,591,Draft,EPIC
ENDOATTNTASK,7 DVA,122,344,<,VALID 80%,Green,-7,J,J,CORRECT,906,Draft,EPIC
ENDOATTNTASK,7 DVA,123,375,>,VALID 80%,Yellow,7,J,J,CORRECT,775,Draft,EPIC
ENDOATTNTASK,7 DVA,124,455,<,VALID 80%,Blue,-7,F,F,CORRECT,1045,Draft,EPIC
ENDOATTNTASK,7 DVA,125,331,+,NEUTRAL 50%,Blue,-7,F,F,CORRECT,519,Draft,EPIC
ENDOATTNTASK,7 DVA,126,440,<,VALID 80%,Green,-7,J,J,CORRECT,910,Draft,EPIC
ENDOATTNTASK,7 DVA,127,339,+,NEUTRAL 50%,Green,-7,J,J,CORRECT,511,Draft,EPIC
ENDOATTNTASK,7 DVA,128,462,>,VALID 80%,Red,7,F,F,CORRECT,1288,Draft,EPIC
ENDOATTNTASK,7 DVA,129,373,>,VALID 80%,Blue,7,F,F,CORRECT,777,Draft,EPIC
ENDOATTNTASK,7 DVA,130,410,<,INVALID 20%,Red,7,F,F,CORRECT,990,Draft,EPIC
ENDOATTNTASK,7 DVA,131,463,<,VALID 80%,Green,-7,J,J,CORRECT,1037,Draft,EPIC
ENDOATTNTASK,7 DVA,132,452,<,VALID 80%,Blue,-7,F,F,CORRECT,798,Draft,EPIC
ENDOATTNTASK,7 DVA,133,328,<,VALID 80%,Blue,-7,F,F,CORRECT,672,Draft,EPIC
ENDOATTNTASK,7 DVA,134,544,+,NEUTRAL 50%,Yellow,7,J,J,CORRECT,1156,Draft,EPIC
ENDOATTNTASK,7 DVA,135,452,<,VALID 80%,Blue,-7,F,F,CORRECT,648,Draft,EPIC
ENDOATTNTASK,7 DVA,136,356,<,VALID 80%,Red,-7,F,F,CORRECT,1194,Draft,EPIC
ENDOATTNTASK,7 DVA,137,359,+,NEUTRAL 50%,Blue,-7,F,F,CORRECT,841,Draft,EPIC
ENDOATTNTASK,7 DVA,138,340,<,VALID 80%,Red,-7,F,F,CORRECT,710,Draft,EPIC
ENDOATTNTASK,7 DVA,139,355,<,VALID 80%,Red,-7,F,F,CORRECT,995,Draft,EPIC
ENDOATTNTASK,7 DVA,140,419,+,NEUTRAL 50%,Blue,7,F,F,CORRECT,681,Draft,EPIC
ENDOATTNTASK,7 DVA,141,448,>,VALID 80%,Yellow,7,J,J,CORRECT,752,Draft,EPIC
ENDOATTNTASK,7 DVA,142,449,>,INVALID 20%,Green,-7,J,J,CORRECT,901,Draft,EPIC
ENDOATTNTASK,7 DVA,143,432,<,INVALID 20%,Yellow,7,J,J,CORRECT,818,Draft,EPIC
ENDOATTNTASK,7 DVA,144,468,>,VALID 80%,Red,7,F,F,CORRECT,1282,Draft,EPIC
ENDOATTNTASK,7 DVA,145,361,<,VALID 80%,Red,-7,F,F,CORRECT,1089,Draft,EPIC
ENDOATTNTASK,7 DVA,146,350,<,VALID 80%,Blue,-7,F,F,CORRECT,1200,Draft,EPIC
ENDOATTNTASK,7 DVA,147,455,<,VALID 80%,Yellow,-7,J,J,CORRECT,1295,Draft,EPIC
ENDOATTNTASK,7 DVA,148,552,>,INVALID 20%,Blue,-7,F,F,CORRECT,998,Draft,EPIC
ENDOATTNTASK,7 DVA,149,356,<,VALID 80%,Red,-7,F,F,CORRECT,644,Draft,EPIC
ENDOATTNTASK,7 DVA,150,428,+,NEUTRAL 50%,Green,-7,J,J,CORRECT,1072,Draft,EPIC
ENDOATTNTASK,7 DVA,151,461,<,VALID 80%,Blue,-7,F,F,CORRECT,1039,Draft,EPIC
ENDOATTNTASK,7 DVA,152,424,<,VALID 80%,Yellow,-7,J,J,CORRECT,726,Draft,EPIC
ENDOATTNTASK,7 DVA,153,326,+,NEUTRAL 50%,Green,-7,J,J,CORRECT,974,Draft,EPIC
ENDOATTNTASK,7 DVA,154,465,>,INVALID 20%,Yellow,-7,J,J,CORRECT,985,Draft,EPIC
ENDOATTNTASK,7 DVA,155,438,+,NEUTRAL 50%,Green,7,J,J,CORRECT,812,Draft,EPIC
ENDOATTNTASK,7 DVA,156,450,<,VALID 80%,Blue,-7,F,F,CORRECT,1150,Draft,EPIC
ENDOATTNTASK,7 DVA,157,434,<,VALID 80%,Yellow,-7,J,J,CORRECT,1166,Draft,EPIC
ENDOATTNTASK,7 DVA,158,554,+,NEUTRAL 50%,Blue,7,F,F,CORRECT,996,Draft,EPIC
ENDOATTNTASK,7 DVA,159,364,+,NEUTRAL 50%,Blue,-7,F,F,CORRECT,986,Draft,EPIC
ENDOATTNTASK,7 DVA,160,355,+,NEUTRAL 50%,Blue,-7,F,F,CORRECT,795,Draft,EPIC
ENDOATTNTASK,7 DVA,161,442,>,VALID 80%,Yellow,7,J,J,CORRECT,558,Draft,EPIC
ENDOATTNTASK,7 DVA,162,329,<,VALID 80%,Green,-7,J,J,CORRECT,1121,Draft,EPIC
ENDOATTNTASK,7 DVA,163,448,<,VALID 80%,Red,-7,F,F,CORRECT,652,Draft,EPIC
ENDOATTNTASK,7 DVA,164,365,<,VALID 80%,Blue,-7,F,F,CORRECT,1235,Draft,EPIC
ENDOATTNTASK,7 DVA,165,362,>,VALID 80%,Red,7,F,F,CORRECT,938,Draft,EPIC
ENDOATTNTASK,7 DVA,166,552,<,INVALID 20%,Yellow,7,J,J,CORRECT,848,Draft,EPIC
ENDOATTNTASK,7 DVA,167,445,>,VALID 80%,Red,7,F,F,CORRECT,1105,Draft,EPIC
ENDOATTNTASK,7 DVA,168,459,+,NEUTRAL 50%,Yellow,-7,J,J,CORRECT,1191,Draft,EPIC
ENDOATTNTASK,7 DVA,169,350,<,VALID 80%,Yellow,-7,J,J,CORRECT,1200,Draft,EPIC
ENDOATTNTASK,7 DVA,170,323,<,VALID 80%,Yellow,-7,J,J,CORRECT,677,Draft,EPIC
ENDOATTNTASK,7 DVA,171,336,<,VALID 80%,Yellow,-7,J,J,CORRECT,964,Draft,EPIC
ENDOATTNTASK,7 DVA,172,555,+,NEUTRAL 50%,Blue,7,F,F,CORRECT,1095,Draft,EPIC
ENDOATTNTASK,7 DVA,173,433,+,NEUTRAL 50%,Green,-7,J,J,CORRECT,667,Draft,EPIC
ENDOATTNTASK,7 DVA,174,545,+,NEUTRAL 50%,Blue,7,F,F,CORRECT,655,Draft,EPIC
ENDOATTNTASK,7 DVA,175,536,+,NEUTRAL 50%,Yellow,7,J,J,CORRECT,664,Draft,EPIC
ENDOATTNTASK,7 DVA,176,440,+,NEUTRAL 50%,Yellow,7,J,J,CORRECT,860,Draft,EPIC
ENDOATTNTASK,7 DVA,177,469,<,VALID 80%,Blue,-7,F,F,CORRECT,681,Draft,EPIC
ENDOATTNTASK,7 DVA,178,356,+,NEUTRAL 50%,Blue,-7,F,F,CORRECT,544,Draft,EPIC
ENDOATTNTASK,7 DVA,179,468,>,VALID 80%,Green,7,J,J,CORRECT,982,Draft,EPIC
ENDOATTNTASK,7 DVA,180,532,+,NEUTRAL 50%,Red,7,F,F,CORRECT,1218,Draft,EPIC
ENDOATTNTASK,7 DVA,181,414,+,NEUTRAL 50%,Blue,7,F,F,CORRECT,1286,Draft,EPIC
ENDOATTNTASK,7 DVA,182,519,+,NEUTRAL 50%,Green,7,J,J,CORRECT,1081,Draft,EPIC
ENDOATTNTASK,7 DVA,183,452,<,INVALID 20%,Yellow,7,J,J,CORRECT,898,Draft,EPIC
ENDOATTNTASK,7 DVA,184,346,+,NEUTRAL 50%,Yellow,-7,J,J,CORRECT,804,Draft,EPIC
ENDOATTNTASK,7 DVA,185,346,>,VALID 80%,Yellow,7,J,J,CORRECT,954,Draft,EPIC
ENDOATTNTASK,7 DVA,186,347,>,VALID 80%,Yellow,7,J,J,CORRECT,1003,Draft,EPIC
ENDOATTNTASK,7 DVA,187,466,<,VALID 80%,Red,-7,F,F,CORRECT,784,Draft,EPIC
ENDOATTNTASK,7 DVA,188,459,<,VALID 80%,Green,-7,J,J,CORRECT,1191,Draft,EPIC
ENDOATTNTASK,7 DVA,189,441,>,VALID 80%,Red,7,F,F,CORRECT,809,Draft,EPIC
ENDOATTNTASK,7 DVA,190,543,<,INVALID 20%,Yellow,7,J,J,CORRECT,1207,Draft,EPIC
ENDOATTNTASK,7 DVA,191,354,+,NEUTRAL 50%,Yellow,-7,J,J,CORRECT,946,Draft,EPIC
ENDOATTNTASK,7 DVA,192,444,>,VALID 80%,Blue,7,F,F,CORRECT,1056,Draft,EPIC
ENDOATTNTASK,7 DVA,193,350,<,VALID 80%,Blue,-7,F,F,CORRECT,1250,Draft,EPIC
ENDOATTNTASK,7 DVA,194,455,+,NEUTRAL 50%,Green,-7,J,J,CORRECT,1095,Draft,EPIC
ENDOATTNTASK,7 DVA,195,463,<,VALID 80%,Blue,-7,F,F,CORRECT,1187,Draft,EPIC
ENDOATTNTASK,7 DVA,196,557,+,NEUTRAL 50%,Green,7,J,J,CORRECT,1193,Draft,EPIC
ENDOATTNTASK,7 DVA,197,553,<,INVALID 20%,Blue,7,F,F,CORRECT,897,Draft,EPIC
ENDOATTNTASK,7 DVA,198,557,+,NEUTRAL 50%,Yellow,7,J,J,CORRECT,943,Draft,EPIC
ENDOATTNTASK,7 DVA,199,440,>,VALID 80%,Red,7,F,F,CORRECT,910,Draft,EPIC
ENDOATTNTASK,7 DVA,200,550,<,INVALID 20%,Yellow,7,J,J,CORRECT,1200,Draft,EPIC
ENDOATTNTASK,7 DVA,1,513,<,VALID 80%,Blue,-7,F,F,CORRECT,711,Draft,EPIC
ENDOATTNTASK,7 DVA,2,429,+,NEUTRAL 50%,Red,7,F,F,CORRECT,621,Draft,EPIC
ENDOATTNTASK,7 DVA,3,443,>,VALID 80%,Yellow,7,J,J,CORRECT,907,Draft,EPIC
ENDOATTNTASK,7 DVA,4,443,+,NEUTRAL 50%,Blue,-7,F,F,CORRECT,1157,Draft,EPIC
ENDOATTNTASK,7 DVA,5,533,<,INVALID 20%,Green,7,J,J,CORRECT,1067,Draft,EPIC
ENDOATTNTASK,7 DVA,6,439,<,VALID 80%,Blue,-7,F,F,CORRECT,1061,Draft,EPIC
ENDOATTNTASK,7 DVA,7,412,+,NEUTRAL 50%,Red,7,F,F,CORRECT,1038,Draft,EPIC
ENDOATTNTASK,7 DVA,8,452,+,NEUTRAL 50%,Red,7,F,F,CORRECT,998,Draft,EPIC
ENDOATTNTASK,7 DVA,9,367,<,VALID 80%,Blue,-7,F,F,CORRECT,1133,Draft,EPIC
ENDOATTNTASK,7 DVA,10,376,>,VALID 80%,Blue,7,F,F,CORRECT,824,Draft,EPIC
ENDOATTNTASK,7 DVA,11,562,>,INVALID 20%,Yellow,-7,J,J,CORRECT,538,Draft,EPIC
ENDOATTNTASK,7 DVA,12,357,+,NEUTRAL 50%,Yellow,-7,J,J,CORRECT,1143,Draft,EPIC
ENDOATTNTASK,7 DVA,13,447,>,VALID 80%,Blue,7,F,F,CORRECT,1153,Draft,EPIC
ENDOATTNTASK,7 DVA,14,356,>,VALID 80%,Blue,7,F,F,CORRECT,1194,Draft,EPIC
ENDOATTNTASK,7 DVA,15,347,>,VALID 80%,Blue,7,F,F,CORRECT,703,Draft,EPIC
ENDOATTNTASK,7 DVA,16,412,+,NEUTRAL 50%,Red,7,F,F,CORRECT,1038,Draft,EPIC
ENDOATTNTASK,7 DVA,17,345,>,VALID 80%,Red,7,F,F,CORRECT,755,Draft,EPIC
ENDOATTNTASK,7 DVA,18,344,<,VALID 80%,Red,-7,F,F,CORRECT,1206,Draft,EPIC
ENDOATTNTASK,7 DVA,19,369,+,NEUTRAL 50%,Blue,-7,F,F,CORRECT,1081,Draft,EPIC
ENDOATTNTASK,7 DVA,20,357,<,VALID 80%,Red,-7,F,F,CORRECT,593,Draft,EPIC
ENDOATTNTASK,7 DVA,21,433,+,NEUTRAL 50%,Green,-7,J,J,CORRECT,1017,Draft,EPIC
ENDOATTNTASK,7 DVA,22,339,+,NEUTRAL 50%,Green,-7,J,J,CORRECT,561,Draft,EPIC
ENDOATTNTASK,7 DVA,23,463,+,NEUTRAL 50%,Red,-7,F,F,CORRECT,837,Draft,EPIC
ENDOATTNTASK,7 DVA,24,461,>,VALID 80%,Yellow,7,J,J,CORRECT,839,Draft,EPIC
ENDOATTNTASK,7 DVA,25,369,>,VALID 80%,Green,7,J,J,CORRECT,781,Draft,EPIC
ENDOATTNTASK,7 DVA,26,432,<,INVALID 20%,Green,7,J,J,CORRECT,968,Draft,EPIC
ENDOATTNTASK,7 DVA,27,442,+,NEUTRAL 50%,Red,-7,F,F,CORRECT,808,Draft,EPIC
ENDOATTNTASK,7 DVA,28,470,<,VALID 80%,Green,-7,J,J,CORRECT,980,Draft,EPIC
ENDOATTNTASK,7 DVA,29,539,+,NEUTRAL 50%,Red,7,F,F,CORRECT,1211,Draft,EPIC
ENDOATTNTASK,7 DVA,30,328,<,VALID 80%,Blue,-7,F,F,CORRECT,922,Draft,EPIC
ENDOATTNTASK,7 DVA,31,331,<,VALID 80%,Blue,-7,F,F,CORRECT,1169,Draft,EPIC
ENDOATTNTASK,7 DVA,32,557,>,INVALID 20%,Green,-7,J,J,CORRECT,643,Draft,EPIC
ENDOATTNTASK,7 DVA,33,345,>,VALID 80%,Green,7,J,J,CORRECT,1055,Draft,EPIC
ENDOATTNTASK,7 DVA,34,361,>,VALID 80%,Green,7,J,J,CORRECT,539,Draft,EPIC
ENDOATTNTASK,7 DVA,35,438,+,NEUTRAL 50%,Blue,-7,F,F,CORRECT,512,Draft,EPIC
ENDOATTNTASK,7 DVA,36,353,<,VALID 80%,Blue,-7,F,F,CORRECT,1147,Draft,EPIC
ENDOATTNTASK,7 DVA,37,466,<,VALID 80%,Yellow,-7,J,J,CORRECT,1034,Draft,EPIC
ENDOATTNTASK,7 DVA,38,531,<,INVALID 20%,Blue,7,F,F,CORRECT,1169,Draft,EPIC
ENDOATTNTASK,7 DVA,39,328,<,VALID 80%,Red,-7,F,F,CORRECT,872,Draft,EPIC
ENDOATTNTASK,7 DVA,40,458,>,VALID 80%,Yellow,7,J,J,CORRECT,1242,Draft,EPIC
ENDOATTNTASK,7 DVA,41,353,<,VALID 80%,Green,-7,J,J,CORRECT,1097,Draft,EPIC
ENDOATTNTASK,7 DVA,42,423,<,VALID 80%,Red,-7,F,F,CORRECT,927,Draft,EPIC
ENDOATTNTASK,7 DVA,43,365,>,VALID 80%,Red,7,F,F,CORRECT,885,Draft,EPIC
ENDOATTNTASK,7 DVA,44,435,<,VALID 80%,Yellow,-7,J,J,CORRECT,1215,Draft,EPIC
ENDOATTNTASK,7 DVA,45,325,+,NEUTRAL 50%,Green,-7,J,J,CORRECT,675,Draft,EPIC
ENDOATTNTASK,7 DVA,46,453,<,VALID 80%,Blue,-7,F,F,CORRECT,597,Draft,EPIC
ENDOATTNTASK,7 DVA,47,518,+,NEUTRAL 50%,Green,7,J,J,CORRECT,682,Draft,EPIC
ENDOATTNTASK,7 DVA,48,361,+,NEUTRAL 50%,Green,-7,J,J,CORRECT,1289,Draft,EPIC
ENDOATTNTASK,7 DVA,49,448,+,NEUTRAL 50%,Green,7,J,J,CORRECT,1202,Draft,EPIC
ENDOATTNTASK,7 DVA,50,452,+,NEUTRAL 50%,Red,-7,F,F,CORRECT,1298,Draft,EPIC
ENDOATTNTASK,7 DVA,51,332,>,VALID 80%,Red,7,F,F,CORRECT,568,Draft,EPIC
ENDOATTNTASK,7 DVA,52,419,<,INVALID 20%,Blue,7,F,F,CORRECT,1181,Draft,EPIC
ENDOATTNTASK,7 DVA,53,417,<,INVALID 20%,Blue,7,F,F,CORRECT,583,Draft,EPIC
ENDOATTNTASK,7 DVA,54,373,>,VALID 80%,Red,7,F,F,CORRECT,827,Draft,EPIC
ENDOATTNTASK,7 DVA,55,515,<,INVALID 20%,Green,7,J,J,CORRECT,1085,Draft,EPIC
ENDOATTNTASK,7 DVA,56,435,>,VALID 80%,Blue,7,F,F,CORRECT,1065,Draft,EPIC
ENDOATTNTASK,7 DVA,57,435,>,INVALID 20%,Red,-7,F,F,CORRECT,765,Draft,EPIC
ENDOATTNTASK,7 DVA,58,465,>,VALID 80%,Green,7,J,J,CORRECT,1085,Draft,EPIC
ENDOATTNTASK,7 DVA,59,543,<,INVALID 20%,Red,7,F,F,CORRECT,907,Draft,EPIC
ENDOATTNTASK,7 DVA,60,457,>,VALID 80%,Yellow,7,J,J,CORRECT,893,Draft,EPIC
ENDOATTNTASK,7 DVA,61,455,+,NEUTRAL 50%,Yellow,7,J,J,CORRECT,1195,Draft,EPIC
ENDOATTNTASK,7 DVA,62,449,>,VALID 80%,Red,7,F,F,CORRECT,1201,Draft,EPIC
ENDOATTNTASK,7 DVA,63,361,>,VALID 80%,Blue,7,F,F,CORRECT,739,Draft,EPIC
ENDOATTNTASK,7 DVA,64,425,<,VALID 80%,Green,-7,J,J,CORRECT,925,Draft,EPIC
ENDOATTNTASK,7 DVA,65,342,>,VALID 80%,Green,7,J,J,CORRECT,908,Draft,EPIC
ENDOATTNTASK,7 DVA,66,453,<,VALID 80%,Blue,-7,F,F,CORRECT,547,Draft,EPIC
ENDOATTNTASK,7 DVA,67,446,>,INVALID 20%,Blue,-7,F,F,CORRECT,1054,Draft,EPIC
ENDOATTNTASK,7 DVA,68,425,>,INVALID 20%,Blue,-7,F,F,CORRECT,525,Draft,EPIC
ENDOATTNTASK,7 DVA,69,465,<,VALID 80%,Green,-7,J,J,CORRECT,835,Draft,EPIC
ENDOATTNTASK,7 DVA,70,436,>,VALID 80%,Red,7,F,F,CORRECT,1214,Draft,EPIC
ENDOATTNTASK,7 DVA,71,423,<,INVALID 20%,Red,7,F,F,CORRECT,627,Draft,EPIC
ENDOATTNTASK,7 DVA,72,453,<,INVALID 20%,Blue,7,F,F,CORRECT,747,Draft,EPIC
ENDOATTNTASK,7 DVA,73,469,<,VALID 80%,Green,-7,J,J,CORRECT,831,Draft,EPIC
ENDOATTNTASK,7 DVA,74,437,<,VALID 80%,Red,-7,F,F,CORRECT,513,Draft,EPIC
ENDOATTNTASK,7 DVA,75,465,<,VALID 80%,Green,-7,J,J,CORRECT,635,Draft,EPIC
ENDOATTNTASK,7 DVA,76,537,>,INVALID 20%,Red,-7,F,F,CORRECT,513,Draft,EPIC
ENDOATTNTASK,7 DVA,77,358,+,NEUTRAL 50%,Red,-7,F,F,CORRECT,992,Draft,EPIC
ENDOATTNTASK,7 DVA,78,539,>,INVALID 20%,Yellow,-7,J,J,CORRECT,1011,Draft,EPIC
ENDOATTNTASK,7 DVA,79,424,+,NEUTRAL 50%,Green,7,J,J,CORRECT,676,Draft,EPIC
ENDOATTNTASK,7 DVA,80,442,<,INVALID 20%,Green,7,J,J,CORRECT,858,Draft,EPIC
ENDOATTNTASK,7 DVA,81,330,+,NEUTRAL 50%,Green,-7,J,J,CORRECT,1070,Draft,EPIC
ENDOATTNTASK,7 DVA,82,420,+,NEUTRAL 50%,Yellow,7,J,J,CORRECT,680,Draft,EPIC
ENDOATTNTASK,7 DVA,83,363,>,VALID 80%,Yellow,7,J,J,CORRECT,537,Draft,EPIC
ENDOATTNTASK,7 DVA,84,473,>,VALID 80%,Blue,7,F,F,CORRECT,1177,Draft,EPIC
ENDOATTNTASK,7 DVA,85,368,<,VALID 80%,Blue,-7,F,F,CORRECT,1282,Draft,EPIC
ENDOATTNTASK,7 DVA,86,470,+,NEUTRAL 50%,Yellow,-7,J,J,CORRECT,980,Draft,EPIC
ENDOATTNTASK,7 DVA,87,520,<,INVALID 20%,Blue,7,F,F,CORRECT,1080,Draft,EPIC
ENDOATTNTASK,7 DVA,88,537,<,INVALID 20%,Green,7,J,J,CORRECT,1113,Draft,EPIC
ENDOATTNTASK,7 DVA,89,441,>,VALID 80%,Blue,7,F,F,CORRECT,909,Draft,EPIC
ENDOATTNTASK,7 DVA,90,326,+,NEUTRAL 50%,Red,-7,F,F,CORRECT,624,Draft,EPIC
ENDOATTNTASK,7 DVA,91,442,<,VALID 80%,Yellow,-7,J,J,CORRECT,958,Draft,EPIC
ENDOATTNTASK,7 DVA,92,409,+,NEUTRAL 50%,Yellow,7,J,J,CORRECT,1141,Draft,EPIC
ENDOATTNTASK,7 DVA,93,466,>,INVALID 20%,Green,-7,J,J,CORRECT,1284,Draft,EPIC
ENDOATTNTASK,7 DVA,94,447,>,VALID 80%,Red,7,F,F,CORRECT,1253,Draft,EPIC
ENDOATTNTASK,7 DVA,95,425,+,NEUTRAL 50%,Blue,7,F,F,CORRECT,925,Draft,EPIC
ENDOATTNTASK,7 DVA,96,364,<,VALID 80%,Red,-7,F,F,CORRECT,836,Draft,EPIC
ENDOATTNTASK,7 DVA,97,345,>,VALID 80%,Red,7,F,F,CORRECT,1105,Draft,EPIC
ENDOATTNTASK,7 DVA,98,453,+,NEUTRAL 50%,Red,7,F,F,CORRECT,797,Draft,EPIC
ENDOATTNTASK,7 DVA,99,477,>,VALID 80%,Yellow,7,J,J,CORRECT,873,Draft,EPIC
ENDOATTNTASK,7 DVA,100,456,<,VALID 80%,Blue,-7,F,F,CORRECT,644,Draft,EPIC
ENDOATTNTASK,7 DVA,101,360,<,VALID 80%,Red,-7,F,F,CORRECT,540,Draft,EPIC
ENDOATTNTASK,7 DVA,102,436,+,NEUTRAL 50%,Green,-7,J,J,CORRECT,814,Draft,EPIC
ENDOATTNTASK,7 DVA,103,348,<,VALID 80%,Green,-7,J,J,CORRECT,752,Draft,EPIC
ENDOATTNTASK,7 DVA,104,429,<,VALID 80%,Red,-7,F,F,CORRECT,1071,Draft,EPIC
ENDOATTNTASK,7 DVA,105,355,<,VALID 80%,Red,-7,F,F,CORRECT,995,Draft,EPIC
ENDOATTNTASK,7 DVA,106,441,>,VALID 80%,Yellow,7,J,J,CORRECT,1059,Draft,EPIC
ENDOATTNTASK,7 DVA,107,469,<,VALID 80%,Red,-7,F,F,CORRECT,1181,Draft,EPIC
ENDOATTNTASK,7 DVA,108,430,<,VALID 80%,Green,-7,J,J,CORRECT,1020,Draft,EPIC
ENDOATTNTASK,7 DVA,109,458,+,NEUTRAL 50%,Red,-7,F,F,CORRECT,1092,Draft,EPIC
ENDOATTNTASK,7 DVA,110,360,+,NEUTRAL 50%,Blue,-7,F,F,CORRECT,1240,Draft,EPIC
ENDOATTNTASK,7 DVA,111,431,>,VALID 80%,Green,7,J,J,CORRECT,569,Draft,EPIC
ENDOATTNTASK,7 DVA,112,351,+,NEUTRAL 50%,Yellow,-7,J,J,CORRECT,1149,Draft,EPIC
ENDOATTNTASK,7 DVA,113,354,>,VALID 80%,Yellow,7,J,J,CORRECT,796,Draft,EPIC
ENDOATTNTASK,7 DVA,114,476,>,VALID 80%,Blue,7,F,F,CORRECT,724,Draft,EPIC
ENDOATTNTASK,7 DVA,115,366,+,NEUTRAL 50%,Blue,-7,F,F,CORRECT,1034,Draft,EPIC
ENDOATTNTASK,7 DVA,116,443,<,INVALID 20%,Blue,7,F,F,CORRECT,557,Draft,EPIC
ENDOATTNTASK,7 DVA,117,357,>,VALID 80%,Red,7,F,F,CORRECT,643,Draft,EPIC
ENDOATTNTASK,7 DVA,118,541,+,NEUTRAL 50%,Green,7,J,J,CORRECT,959,Draft,EPIC
ENDOATTNTASK,7 DVA,119,348,>,VALID 80%,Yellow,7,J,J,CORRECT,502,Draft,EPIC
ENDOATTNTASK,7 DVA,120,551,<,INVALID 20%,Red,7,F,F,CORRECT,799,Draft,EPIC
ENDOATTNTASK,7 DVA,121,346,<,VALID 80%,Blue,-7,F,F,CORRECT,804,Draft,EPIC
ENDOATTNTASK,7 DVA,122,478,>,VALID 80%,Yellow,7,J,J,CORRECT,622,Draft,EPIC
ENDOATTNTASK,7 DVA,123,369,>,VALID 80%,Yellow,7,J,J,CORRECT,781,Draft,EPIC
ENDOATTNTASK,7 DVA,124,431,+,NEUTRAL 50%,Yellow,7,J,J,CORRECT,1269,Draft,EPIC
ENDOATTNTASK,7 DVA,125,349,+,NEUTRAL 50%,Yellow,-7,J,J,CORRECT,851,Draft,EPIC
ENDOATTNTASK,7 DVA,126,351,>,VALID 80%,Green,7,J,J,CORRECT,1099,Draft,EPIC
ENDOATTNTASK,7 DVA,127,471,>,VALID 80%,Red,7,F,F,CORRECT,879,Draft,EPIC
ENDOATTNTASK,7 DVA,128,434,<,VALID 80%,Green,-7,J,J,CORRECT,866,Draft,EPIC
ENDOATTNTASK,7 DVA,129,423,>,INVALID 20%,Green,-7,J,J,CORRECT,777,Draft,EPIC
ENDOATTNTASK,7 DVA,130,421,+,NEUTRAL 50%,Yellow,7,J,J,CORRECT,1029,Draft,EPIC
ENDOATTNTASK,7 DVA,131,438,<,VALID 80%,Red,-7,F,F,CORRECT,562,Draft,EPIC
ENDOATTNTASK,7 DVA,132,421,<,VALID 80%,Green,-7,J,J,CORRECT,579,Draft,EPIC
ENDOATTNTASK,7 DVA,133,467,<,VALID 80%,Red,-7,F,F,CORRECT,733,Draft,EPIC
ENDOATTNTASK,7 DVA,134,365,<,VALID 80%,Blue,-7,F,F,CORRECT,1135,Draft,EPIC
ENDOATTNTASK,7 DVA,135,452,<,VALID 80%,Green,-7,J,J,CORRECT,798,Draft,EPIC
ENDOATTNTASK,7 DVA,136,554,<,INVALID 20%,Blue,7,F,F,CORRECT,946,Draft,EPIC
ENDOATTNTASK,7 DVA,137,410,<,INVALID 20%,Blue,7,F,F,CORRECT,890,Draft,EPIC
ENDOATTNTASK,7 DVA,138,355,>,VALID 80%,Blue,7,F,F,CORRECT,695,Draft,EPIC
ENDOATTNTASK,7 DVA,139,470,>,VALID 80%,Yellow,7,J,J,CORRECT,580,Draft,EPIC
ENDOATTNTASK,7 DVA,140,554,+,NEUTRAL 50%,Red,7,F,F,CORRECT,1196,Draft,EPIC
ENDOATTNTASK,7 DVA,141,416,+,NEUTRAL 50%,Red,7,F,F,CORRECT,534,Draft,EPIC
ENDOATTNTASK,7 DVA,142,355,>,VALID 80%,Red,7,F,F,CORRECT,995,Draft,EPIC
ENDOATTNTASK,7 DVA,143,435,>,INVALID 20%,Blue,-7,F,F,CORRECT,815,Draft,EPIC
ENDOATTNTASK,7 DVA,144,479,>,VALID 80%,Yellow,7,J,J,CORRECT,1071,Draft,EPIC
ENDOATTNTASK,7 DVA,145,358,+,NEUTRAL 50%,Green,-7,J,J,CORRECT,892,Draft,EPIC
ENDOATTNTASK,7 DVA,146,509,<,INVALID 20%,Red,7,F,F,CORRECT,1241,Draft,EPIC
ENDOATTNTASK,7 DVA,147,353,>,VALID 80%,Blue,7,F,F,CORRECT,1047,Draft,EPIC
ENDOATTNTASK,7 DVA,148,464,<,VALID 80%,Green,-7,J,J,CORRECT,1136,Draft,EPIC
ENDOATTNTASK,7 DVA,149,447,>,VALID 80%,Red,7,F,F,CORRECT,1103,Draft,EPIC
ENDOATTNTASK,7 DVA,150,447,+,NEUTRAL 50%,Blue,7,F,F,CORRECT,1003,Draft,EPIC
ENDOATTNTASK,7 DVA,151,427,+,NEUTRAL 50%,Green,-7,J,J,CORRECT,773,Draft,EPIC
ENDOATTNTASK,7 DVA,152,431,<,VALID 80%,Blue,-7,F,F,CORRECT,1069,Draft,EPIC
ENDOATTNTASK,7 DVA,153,434,>,VALID 80%,Green,7,J,J,CORRECT,516,Draft,EPIC
ENDOATTNTASK,7 DVA,154,442,>,VALID 80%,Blue,7,F,F,CORRECT,658,Draft,EPIC
ENDOATTNTASK,7 DVA,155,454,<,VALID 80%,Green,-7,J,J,CORRECT,1146,Draft,EPIC
ENDOATTNTASK,7 DVA,156,329,+,NEUTRAL 50%,Yellow,-7,J,J,CORRECT,571,Draft,EPIC
ENDOATTNTASK,7 DVA,157,339,<,VALID 80%,Green,-7,J,J,CORRECT,811,Draft,EPIC
ENDOATTNTASK,7 DVA,158,421,<,VALID 80%,Red,-7,F,F,CORRECT,1029,Draft,EPIC
ENDOATTNTASK,7 DVA,159,350,<,VALID 80%,Red,-7,F,F,CORRECT,1200,Draft,EPIC
ENDOATTNTASK,7 DVA,160,352,>,VALID 80%,Red,7,F,F,CORRECT,998,Draft,EPIC
ENDOATTNTASK,7 DVA,161,430,<,VALID 80%,Yellow,-7,J,J,CORRECT,1170,Draft,EPIC
ENDOATTNTASK,7 DVA,162,432,<,INVALID 20%,Green,7,J,J,CORRECT,1068,Draft,EPIC
ENDOATTNTASK,7 DVA,163,359,>,VALID 80%,Green,7,J,J,CORRECT,1141,Draft,EPIC
ENDOATTNTASK,7 DVA,164,365,>,VALID 80%,Yellow,7,J,J,CORRECT,685,Draft,EPIC
ENDOATTNTASK,7 DVA,165,440,<,VALID 80%,Blue,-7,F,F,CORRECT,910,Draft,EPIC
ENDOATTNTASK,7 DVA,166,361,>,VALID 80%,Blue,7,F,F,CORRECT,639,Draft,EPIC
ENDOATTNTASK,7 DVA,167,445,+,NEUTRAL 50%,Yellow,-7,J,J,CORRECT,1155,Draft,EPIC
ENDOATTNTASK,7 DVA,168,447,>,VALID 80%,Red,7,F,F,CORRECT,1153,Draft,EPIC
ENDOATTNTASK,7 DVA,169,450,>,VALID 80%,Yellow,7,J,J,CORRECT,1000,Draft,EPIC
ENDOATTNTASK,7 DVA,170,541,+,NEUTRAL 50%,Red,7,F,F,CORRECT,909,Draft,EPIC
ENDOATTNTASK,7 DVA,171,374,>,VALID 80%,Red,7,F,F,CORRECT,1026,Draft,EPIC
ENDOATTNTASK,7 DVA,172,377,>,VALID 80%,Blue,7,F,F,CORRECT,1123,Draft,EPIC
ENDOATTNTASK,7 DVA,173,440,<,VALID 80%,Green,-7,J,J,CORRECT,560,Draft,EPIC
ENDOATTNTASK,7 DVA,174,458,+,NEUTRAL 50%,Red,-7,F,F,CORRECT,942,Draft,EPIC
ENDOATTNTASK,7 DVA,175,342,<,VALID 80%,Blue,-7,F,F,CORRECT,858,Draft,EPIC
ENDOATTNTASK,7 DVA,176,466,+,NEUTRAL 50%,Yellow,-7,J,J,CORRECT,884,Draft,EPIC
ENDOATTNTASK,7 DVA,177,535,>,INVALID 20%,Blue,-7,F,F,CORRECT,865,Draft,EPIC
ENDOATTNTASK,7 DVA,178,509,<,INVALID 20%,Yellow,7,J,J,CORRECT,941,Draft,EPIC
ENDOATTNTASK,7 DVA,179,429,+,NEUTRAL 50%,Blue,-7,F,F,CORRECT,871,Draft,EPIC
ENDOATTNTASK,7 DVA,180,344,<,VALID 80%,Blue,-7,F,F,CORRECT,856,Draft,EPIC
ENDOATTNTASK,7 DVA,181,468,<,VALID 80%,Green,-7,J,J,CORRECT,632,Draft,EPIC
ENDOATTNTASK,7 DVA,182,552,+,NEUTRAL 50%,Red,7,F,F,CORRECT,1298,Draft,EPIC
ENDOATTNTASK,7 DVA,183,351,+,NEUTRAL 50%,Blue,-7,F,F,CORRECT,699,Draft,EPIC
ENDOATTNTASK,7 DVA,184,432,>,VALID 80%,Green,7,J,J,CORRECT,518,Draft,EPIC
ENDOATTNTASK,7 DVA,185,422,<,VALID 80%,Red,-7,F,F,CORRECT,878,Draft,EPIC
ENDOATTNTASK,7 DVA,186,362,<,VALID 80%,Blue,-7,F,F,CORRECT,888,Draft,EPIC
ENDOATTNTASK,7 DVA,187,530,+,NEUTRAL 50%,Green,7,J,J,CORRECT,520,Draft,EPIC
ENDOATTNTASK,7 DVA,188,344,<,VALID 80%,Green,-7,J,J,CORRECT,906,Draft,EPIC
ENDOATTNTASK,7 DVA,189,475,>,VALID 80%,Blue,7,F,F,CORRECT,575,Draft,EPIC
ENDOATTNTASK,7 DVA,190,343,<,VALID 80%,Red,-7,F,F,CORRECT,1157,Draft,EPIC
ENDOATTNTASK,7 DVA,191,417,+,NEUTRAL 50%,Blue,7,F,F,CORRECT,783,Draft,EPIC
ENDOATTNTASK,7 DVA,192,548,>,INVALID 20%,Yellow,-7,J,J,CORRECT,602,Draft,EPIC
ENDOATTNTASK,7 DVA,193,345,+,NEUTRAL 50%,Yellow,-7,J,J,CORRECT,505,Draft,EPIC
ENDOATTNTASK,7 DVA,194,425,+,NEUTRAL 50%,Blue,-7,F,F,CORRECT,1075,Draft,EPIC
ENDOATTNTASK,7 DVA,195,437,<,VALID 80%,Yellow,-7,J,J,CORRECT,513,Draft,EPIC
ENDOATTNTASK,7 DVA,196,429,<,INVALID 20%,Green,7,J,J,CORRECT,571,Draft,EPIC
ENDOATTNTASK,7 DVA,197,350,>,VALID 80%,Yellow,7,J,J,CORRECT,1150,Draft,EPIC
ENDOATTNTASK,7 DVA,198,423,<,VALID 80%,Blue,-7,F,F,CORRECT,627,Draft,EPIC
ENDOATTNTASK,7 DVA,199,434,<,VALID 80%,Yellow,-7,J,J,CORRECT,566,Draft,EPIC
ENDOATTNTASK,7 DVA,200,453,>,VALID 80%,Red,7,F,F,CORRECT,1097,Draft,EPIC
ENDOATTNTASK,7 DVA,1,507,<,VALID 80%,Yellow,-7,J,J,CORRECT,1117,Draft,EPIC
ENDOATTNTASK,7 DVA,2,529,<,INVALID 20%,Red,7,F,F,CORRECT,1171,Draft,EPIC
ENDOATTNTASK,7 DVA,3,332,<,VALID 80%,Red,-7,F,F,CORRECT,1118,Draft,EPIC
ENDOATTNTASK,7 DVA,4,461,<,VALID 80%,Yellow,-7,J,J,CORRECT,739,Draft,EPIC
ENDOATTNTASK,7 DVA,5,440,<,VALID 80%,Red,-7,F,F,CORRECT,610,Draft,EPIC
ENDOATTNTASK,7 DVA,6,375,>,VALID 80%,Blue,7,F,F,CORRECT,825,Draft,EPIC
ENDOATTNTASK,7 DVA,7,447,+,NEUTRAL 50%,Yellow,-7,J,J,CORRECT,953,Draft,EPIC
ENDOATTNTASK,7 DVA,8,347,<,VALID 80%,Yellow,-7,J,J,CORRECT,953,Draft,EPIC
ENDOATTNTASK,7 DVA,9,449,+,NEUTRAL 50%,Yellow,7,J,J,CORRECT,1051,Draft,EPIC
ENDOATTNTASK,7 DVA,10,336,>,VALID 80%,Yellow,7,J,J,CORRECT,764,Draft,EPIC
ENDOATTNTASK,7 DVA,11,444,<,VALID 80%,Red,-7,F,F,CORRECT,1106,Draft,EPIC
ENDOATTNTASK,7 DVA,12,421,<,INVALID 20%,Blue,7,F,F,CORRECT,1079,Draft,EPIC
ENDOATTNTASK,7 DVA,13,448,+,NEUTRAL 50%,Red,7,F,F,CORRECT,652,Draft,EPIC
ENDOATTNTASK,7 DVA,14,351,<,VALID 80%,Red,-7,F,F,CORRECT,599,Draft,EPIC
ENDOATTNTASK,7 DVA,15,421,+,NEUTRAL 50%,Red,7,F,F,CORRECT,679,Draft,EPIC
ENDOATTNTASK,7 DVA,16,371,>,VALID 80%,Red,7,F,F,CORRECT,929,Draft,EPIC
ENDOATTNTASK,7 DVA,17,455,+,NEUTRAL 50%,Yellow,-7,J,J,CORRECT,595,Draft,EPIC
ENDOATTNTASK,7 DVA,18,375,>,VALID 80%,Yellow,7,J,J,CORRECT,575,Draft,EPIC
ENDOATTNTASK,7 DVA,19,353,<,VALID 80%,Yellow,-7,J,J,CORRECT,697,Draft,EPIC
ENDOATTNTASK,7 DVA,20,469,>,VALID 80%,Red,7,F,F,CORRECT,781,Draft,EPIC
ENDOATTNTASK,7 DVA,21,542,<,INVALID 20%,Green,7,J,J,CORRECT,958,Draft,EPIC
ENDOATTNTASK,7 DVA,22,542,>,INVALID 20%,Red,-7,F,F,CORRECT,1158,Draft,EPIC
ENDOATTNTASK,7 DVA,23,419,>,INVALID 20%,Red,-7,F,F,CORRECT,1081,Draft,EPIC
ENDOATTNTASK,7 DVA,24,348,>,VALID 80%,Blue,7,F,F,CORRECT,1152,Draft,EPIC
ENDOATTNTASK,7 DVA,25,438,<,INVALID 20%,Blue,7,F,F,CORRECT,1012,Draft,EPIC
ENDOATTNTASK,7 DVA,26,564,>,INVALID 20%,Yellow,-7,J,J,CORRECT,886,Draft,EPIC
ENDOATTNTASK,7 DVA,27,438,+,NEUTRAL 50%,Red,-7,F,F,CORRECT,762,Draft,EPIC
ENDOATTNTASK,7 DVA,28,455,<,VALID 80%,Green,-7,J,J,CORRECT,945,Draft,EPIC
ENDOATTNTASK,7 DVA,29,462,<,VALID 80%,Blue,-7,F,F,CORRECT,1188,Draft,EPIC
ENDOATTNTASK,7 DVA,30,535,+,NEUTRAL 50%,Yellow,7,J,J,CORRECT,615,Draft,EPIC
ENDOATTNTASK,7 DVA,31,466,>,VALID 80%,Blue,7,F,F,CORRECT,884,Draft,EPIC
ENDOATTNTASK,7 DVA,32,344,<,VALID 80%,Red,-7,F,F,CORRECT,606,Draft,EPIC
ENDOATTNTASK,7 DVA,33,450,+,NEUTRAL 50%,Green,-7,J,J,CORRECT,850,Draft,EPIC
ENDOATTNTASK,7 DVA,34,463,<,VALID 80%,Blue,-7,F,F,CORRECT,887,Draft,EPIC
ENDOATTNTASK,7 DVA,35,445,+,NEUTRAL 50%,Yellow,-7,J,J,CORRECT,855,Draft,EPIC
ENDOATTNTASK,7 DVA,36,457,<,VALID 80%,Red,-7,F,F,CORRECT,693,Draft,EPIC
ENDOATTNTASK,7 DVA,37,421,<,INVALID 20%,Blue,7,F,F,CORRECT,729,Draft,EPIC
ENDOATTNTASK,7 DVA,38,346,>,VALID 80%,Red,7,F,F,CORRECT,1004,Draft,EPIC
ENDOATTNTASK,7 DVA,39,427,+,NEUTRAL 50%,Blue,7,F,F,CORRECT,1173,Draft,EPIC
ENDOATTNTASK,7 DVA,40,334,>,VALID 80%,Blue,7,F,F,CORRECT,816,Draft,EPIC
ENDOATTNTASK,7 DVA,41,466,<,VALID 80%,Yellow,-7,J,J,CORRECT,1134,Draft,EPIC
ENDOATTNTASK,7 DVA,42,468,<,VALID 80%,Blue,-7,F,F,CORRECT,1132,Draft,EPIC
ENDOATTNTASK,7 DVA,43,425,<,VALID 80%,Green,-7,J,J,CORRECT,825,Draft,EPIC
ENDOATTNTASK,7 DVA,44,336,>,VALID 80%,Green,7,J,J,CORRECT,764,Draft,EPIC
ENDOATTNTASK,7 DVA,45,559,>,INVALID 20%,Blue,-7,F,F,CORRECT,1191,Draft,EPIC
ENDOATTNTASK,7 DVA,46,527,+,NEUTRAL 50%,Green,7,J,J,CORRECT,1023,Draft,EPIC
ENDOATTNTASK,7 DVA,47,353,>,VALID 80%,Green,7,J,J,CORRECT,1197,Draft,EPIC
ENDOATTNTASK,7 DVA,48,533,>,INVALID 20%,Blue,-7,F,F,CORRECT,917,Draft,EPIC
ENDOATTNTASK,7 DVA,49,428,<,VALID 80%,Green,-7,J,J,CORRECT,1022,Draft,EPIC
ENDOATTNTASK,7 DVA,50,450,>,VALID 80%,Blue,7,F,F,CORRECT,950,Draft,EPIC
ENDOATTNTASK,7 DVA,51,468,<,VALID 80%,Green,-7,J,J,CORRECT,1232,Draft,EPIC
ENDOATTNTASK,7 DVA,52,444,+,NEUTRAL 50%,Blue,-7,F,F,CORRECT,1106,Draft,EPIC
ENDOATTNTASK,7 DVA,53,357,<,VALID 80%,Red,-7,F,F,CORRECT,1243,Draft,EPIC
ENDOATTNTASK,7 DVA,54,546,+,NEUTRAL 50%,Green,7,J,J,CORRECT,904,Draft,EPIC
ENDOATTNTASK,7 DVA,55,370,>,VALID 80%,Yellow,7,J,J,CORRECT,680,Draft,EPIC
ENDOATTNTASK,7 DVA,56,536,>,INVALID 20%,Red,-7,F,F,CORRECT,1114,Draft,EPIC
ENDOATTNTASK,7 DVA,57,460,<,VALID 80%,Green,-7,J,J,CORRECT,1090,Draft,EPIC
ENDOATTNTASK,7 DVA,58,418,<,INVALID 20%,Green,7,J,J,CORRECT,532,Draft,EPIC
ENDOATTNTASK,7 DVA,59,371,>,VALID 80%,Green,7,J,J,CORRECT,1229,Draft,EPIC
ENDOATTNTASK,7 DVA,60,447,<,VALID 80%,Red,-7,F,F,CORRECT,1203,Draft,EPIC
ENDOATTNTASK,7 DVA,61,523,+,NEUTRAL 50%,Yellow,7,J,J,CORRECT,1227,Draft,EPIC
ENDOATTNTASK,7 DVA,62,447,+,NEUTRAL 50%,Blue,-7,F,F,CORRECT,1053,Draft,EPIC
ENDOATTNTASK,7 DVA,63,351,<,VALID 80%,Blue,-7,F,F,CORRECT,1149,Draft,EPIC
ENDOATTNTASK,7 DVA,64,323,<,VALID 80%,Blue,-7,F,F,CORRECT,727,Draft,EPIC
ENDOATTNTASK,7 DVA,65,517,+,NEUTRAL 50%,Green,7,J,J,CORRECT,833,Draft,EPIC
ENDOATTNTASK,7 DVA,66,458,+,NEUTRAL 50%,Yellow,7,J,J,CORRECT,592,Draft,EPIC
ENDOATTNTASK,7 DVA,67,454,+,NEUTRAL 50%,Red,-7,F,F,CORRECT,696,Draft,EPIC
ENDOATTNTASK,7 DVA,68,520,<,INVALID 20%,Yellow,7,J,J,CORRECT,630,Draft,EPIC
ENDOATTNTASK,7 DVA,69,423,<,VALID 80%,Blue,-7,F,F,CORRECT,727,Draft,EPIC
ENDOATTNTASK,7 DVA,70,342,<,VALID 80%,Red,-7,F,F,CORRECT,958,Draft,EPIC
ENDOATTNTASK,7 DVA,71,446,>,VALID 80%,Yellow,7,J,J,CORRECT,1154,Draft,EPIC
ENDOATTNTASK,7 DVA,72,459,<,VALID 80%,Blue,-7,F,F,CORRECT,991,Draft,EPIC
ENDOATTNTASK,7 DVA,73,360,+,NEUTRAL 50%,Blue,-7,F,F,CORRECT,1240,Draft,EPIC
ENDOATTNTASK,7 DVA,74,332,<,VALID 80%,Red,-7,F,F,CORRECT,618,Draft,EPIC
ENDOATTNTASK,7 DVA,75,333,>,VALID 80%,Blue,7,F,F,CORRECT,617,Draft,EPIC
ENDOATTNTASK,7 DVA,76,432,<,INVALID 20%,Red,7,F,F,CORRECT,618,Draft,EPIC
ENDOATTNTASK,7 DVA,77,349,>,VALID 80%,Blue,7,F,F,CORRECT,951,Draft,EPIC
ENDOATTNTASK,7 DVA,78,350,<,VALID 80%,Red,-7,F,F,CORRECT,700,Draft,EPIC
ENDOATTNTASK,7 DVA,79,438,>,VALID 80%,Green,7,J,J,CORRECT,1262,Draft,EPIC
ENDOATTNTASK,7 DVA,80,323,+,NEUTRAL 50%,Yellow,-7,J,J,CORRECT,1127,Draft,EPIC
ENDOATTNTASK,7 DVA,81,462,>,VALID 80%,Blue,7,F,F,CORRECT,838,Draft,EPIC
ENDOATTNTASK,7 DVA,82,469,>,VALID 80%,Green,7,J,J,CORRECT,881,Draft,EPIC
ENDOATTNTASK,7 DVA,83,443,<,VALID 80%,Red,-7,F,F,CORRECT,1157,Draft,EPIC
ENDOATTNTASK,7 DVA,84,453,>,VALID 80%,Yellow,7,J,J,CORRECT,1147,Draft,EPIC
ENDOATTNTASK,7 DVA,85,344,>,VALID 80%,Yellow,7,J,J,CORRECT,606,Draft,EPIC
ENDOATTNTASK,7 DVA,86,348,>,VALID 80%,Yellow,7,J,J,CORRECT,1002,Draft,EPIC
ENDOATTNTASK,7 DVA,87,473,>,VALID 80%,Red,7,F,F,CORRECT,627,Draft,EPIC
ENDOATTNTASK,7 DVA,88,511,<,INVALID 20%,Green,7,J,J,CORRECT,639,Draft,EPIC
ENDOATTNTASK,7 DVA,89,468,>,VALID 80%,Red,7,F,F,CORRECT,582,Draft,EPIC
ENDOATTNTASK,7 DVA,90,511,+,NEUTRAL 50%,Green,7,J,J,CORRECT,989,Draft,EPIC
ENDOATTNTASK,7 DVA,91,351,<,VALID 80%,Yellow,-7,J,J,CORRECT,1149,Draft,EPIC
ENDOATTNTASK,7 DVA,92,448,<,VALID 80%,Red,-7,F,F,CORRECT,1052,Draft,EPIC
ENDOATTNTASK,7 DVA,93,549,+,NEUTRAL 50%,Yellow,7,J,J,CORRECT,951,Draft,EPIC
ENDOATTNTASK,7 DVA,94,416,+,NEUTRAL 50%,Green,7,J,J,CORRECT,1234,Draft,EPIC
ENDOATTNTASK,7 DVA,95,449,<,VALID 80%,Red,-7,F,F,CORRECT,701,Draft,EPIC
ENDOATTNTASK,7 DVA,96,421,+,NEUTRAL 50%,Red,7,F,F,CORRECT,1179,Draft,EPIC
ENDOATTNTASK,7 DVA,97,342,+,NEUTRAL 50%,Blue,-7,F,F,CORRECT,758,Draft,EPIC
ENDOATTNTASK,7 DVA,98,422,<,VALID 80%,Green,-7,J,J,CORRECT,1128,Draft,EPIC
ENDOATTNTASK,7 DVA,99,455,+,NEUTRAL 50%,Blue,-7,F,F,CORRECT,1145,Draft,EPIC
ENDOATTNTASK,7 DVA,100,333,<,VALID 80%,Blue,-7,F,F,CORRECT,967,Draft,EPIC
ENDOATTNTASK,7 DVA,101,372,>,VALID 80%,Red,7,F,F,CORRECT,978,Draft,EPIC
ENDOATTNTASK,7 DVA,102,455,>,VALID 80%,Yellow,7,J,J,CORRECT,1195,Draft,EPIC
ENDOATTNTASK,7 DVA,103,354,+,NEUTRAL 50%,Yellow,-7,J,J,CORRECT,546,Draft,EPIC
ENDOATTNTASK,7 DVA,104,458,+,NEUTRAL 50%,Green,7,J,J,CORRECT,1242,Draft,EPIC
ENDOATTNTASK,7 DVA,105,432,>,VALID 80%,Red,7,F,F,CORRECT,1168,Draft,EPIC
ENDOATTNTASK,7 DVA,106,344,>,VALID 80%,Red,7,F,F,CORRECT,1106,Draft,EPIC
ENDOATTNTASK,7 DVA,107,474,>,VALID 80%,Green,7,J,J,CORRECT,1076,Draft,EPIC
ENDOATTNTASK,7 DVA,108,351,+,NEUTRAL 50%,Yellow,-7,J,J,CORRECT,1049,Draft,EPIC
ENDOATTNTASK,7 DVA,109,450,+,NEUTRAL 50%,Yellow,7,J,J,CORRECT,800,Draft,EPIC
ENDOATTNTASK,7 DVA,110,352,<,VALID 80%,Yellow,-7,J,J,CORRECT,998,Draft,EPIC
ENDOATTNTASK,7 DVA,111,358,>,VALID 80%,Yellow,7,J,J,CORRECT,1042,Draft,EPIC
ENDOATTNTASK,7 DVA,112,449,+,NEUTRAL 50%,Green,7,J,J,CORRECT,801,Draft,EPIC
ENDOATTNTASK,7 DVA,113,430,+,NEUTRAL 50%,Blue,-7,F,F,CORRECT,970,Draft,EPIC
ENDOATTNTASK,7 DVA,114,337,+,NEUTRAL 50%,Blue,-7,F,F,CORRECT,1013,Draft,EPIC
ENDOATTNTASK,7 DVA,115,449,<,INVALID 20%,Red,7,F,F,CORRECT,851,Draft,EPIC
ENDOATTNTASK,7 DVA,116,368,+,NEUTRAL 50%,Blue,-7,F,F,CORRECT,932,Draft,EPIC
ENDOATTNTASK,7 DVA,117,447,+,NEUTRAL 50%,Blue,7,F,F,CORRECT,653,Draft,EPIC
ENDOATTNTASK,7 DVA,118,322,+,NEUTRAL 50%,Blue,-7,F,F,CORRECT,878,Draft,EPIC
ENDOATTNTASK,7 DVA,119,368,>,VALID 80%,Blue,7,F,F,CORRECT,782,Draft,EPIC
ENDOATTNTASK,7 DVA,120,369,>,VALID 80%,Red,7,F,F,CORRECT,1281,Draft,EPIC
ENDOATTNTASK,7 DVA,121,430,+,NEUTRAL 50%,Yellow,-7,J,J,CORRECT,1170,Draft,EPIC
ENDOATTNTASK,7 DVA,122,555,>,INVALID 20%,Blue,-7,F,F,CORRECT,1145,Draft,EPIC
ENDOATTNTASK,7 DVA,123,461,<,VALID 80%,Yellow,-7,J,J,CORRECT,1039,Draft,EPIC
ENDOATTNTASK,7 DVA,124,343,<,VALID 80%,Green,-7,J,J,CORRECT,507,Draft,EPIC
ENDOATTNTASK,7 DVA,125,368,<,VALID 80%,Yellow,-7,J,J,CORRECT,582,Draft,EPIC
ENDOATTNTASK,7 DVA,126,327,<,VALID 80%,Yellow,-7,J,J,CORRECT,1123,Draft,EPIC
ENDOATTNTASK,7 DVA,127,444,<,INVALID 20%,Yellow,7,J,J,CORRECT,1256,Draft,EPIC
ENDOATTNTASK,7 DVA,128,344,<,VALID 80%,Yellow,-7,J,J,CORRECT,556,Draft,EPIC
ENDOATTNTASK,7 DVA,129,344,>,VALID 80%,Green,7,J,J,CORRECT,1156,Draft,EPIC
ENDOATTNTASK,7 DVA,130,338,<,VALID 80%,Green,-7,J,J,CORRECT,862,Draft,EPIC
ENDOATTNTASK,7 DVA,131,439,>,VALID 80%,Blue,7,F,F,CORRECT,1261,Draft,EPIC
ENDOATTNTASK,7 DVA,132,343,+,NEUTRAL 50%,Blue,-7,F,F,CORRECT,957,Draft,EPIC
ENDOATTNTASK,7 DVA,133,349,>,VALID 80%,Blue,7,F,F,CORRECT,1201,Draft,EPIC
ENDOATTNTASK,7 DVA,134,528,+,NEUTRAL 50%,Yellow,7,J,J,CORRECT,672,Draft,EPIC
ENDOATTNTASK,7 DVA,135,441,<,VALID 80%,Red,-7,F,F,CORRECT,609,Draft,EPIC
ENDOATTNTASK,7 DVA,136,421,+,NEUTRAL 50%,Green,-7,J,J,CORRECT,929,Draft,EPIC
ENDOATTNTASK,7 DVA,137,447,>,VALID 80%,Blue,7,F,F,CORRECT,1103,Draft,EPIC
ENDOATTNTASK,7 DVA,138,541,<,INVALID 20%,Green,7,J,J,CORRECT,1159,Draft,EPIC
ENDOATTNTASK,7 DVA,139,412,<,INVALID 20%,Yellow,7,J,J,CORRECT,738,Draft,EPIC
ENDOATTNTASK,7 DVA,140,516,<,INVALID 20%,Blue,7,F,F,CORRECT,684,Draft,EPIC
ENDOATTNTASK,7 DVA,141,414,<,INVALID 20%,Red,7,F,F,CORRECT,836,Draft,EPIC
ENDOATTNTASK,7 DVA,142,436,+,NEUTRAL 50%,Red,7,F,F,CORRECT,1164,Draft,EPIC
ENDOATTNTASK,7 DVA,143,446,>,VALID 80%,Green,7,J,J,CORRECT,904,Draft,EPIC
ENDOATTNTASK,7 DVA,144,471,>,VALID 80%,Blue,7,F,F,CORRECT,929,Draft,EPIC
ENDOATTNTASK,7 DVA,145,359,<,VALID 80%,Red,-7,F,F,CORRECT,1241,Draft,EPIC
ENDOATTNTASK,7 DVA,146,515,<,INVALID 20%,Green,7,J,J,CORRECT,585,Draft,EPIC
ENDOATTNTASK,7 DVA,147,448,<,VALID 80%,Blue,-7,F,F,CORRECT,1052,Draft,EPIC
ENDOATTNTASK,7 DVA,148,459,>,VALID 80%,Yellow,7,J,J,CORRECT,941,Draft,EPIC
ENDOATTNTASK,7 DVA,149,353,+,NEUTRAL 50%,Yellow,-7,J,J,CORRECT,847,Draft,EPIC
ENDOATTNTASK,7 DVA,150,521,>,INVALID 20%,Blue,-7,F,F,CORRECT,1129,Draft,EPIC
ENDOATTNTASK,7 DVA,151,351,>,VALID 80%,Blue,7,F,F,CORRECT,649,Draft,EPIC
ENDOATTNTASK,7 DVA,152,364,>,VALID 80%,Blue,7,F,F,CORRECT,686,Draft,EPIC
ENDOATTNTASK,7 DVA,153,438,+,NEUTRAL 50%,Red,7,F,F,CORRECT,762,Draft,EPIC
ENDOATTNTASK,7 DVA,154,354,>,VALID 80%,Blue,7,F,F,CORRECT,546,Draft,EPIC
ENDOATTNTASK,7 DVA,155,357,>,VALID 80%,Blue,7,F,F,CORRECT,843,Draft,EPIC
ENDOATTNTASK,7 DVA,156,324,+,NEUTRAL 50%,Red,-7,F,F,CORRECT,626,Draft,EPIC
ENDOATTNTASK,7 DVA,157,373,>,VALID 80%,Blue,7,F,F,CORRECT,877,Draft,EPIC
ENDOATTNTASK,7 DVA,158,430,<,VALID 80%,Green,-7,J,J,CORRECT,670,Draft,EPIC
ENDOATTNTASK,7 DVA,159,353,>,VALID 80%,Yellow,7,J,J,CORRECT,797,Draft,EPIC
ENDOATTNTASK,7 DVA,160,338,+,NEUTRAL 50%,Green,-7,J,J,CORRECT,1062,Draft,EPIC
ENDOATTNTASK,7 DVA,161,534,+,NEUTRAL 50%,Blue,7,F,F,CORRECT,916,Draft,EPIC
ENDOATTNTASK,7 DVA,162,374,>,VALID 80%,Blue,7,F,F,CORRECT,776,Draft,EPIC
ENDOATTNTASK,7 DVA,163,454,>,VALID 80%,Green,7,J,J,CORRECT,846,Draft,EPIC
ENDOATTNTASK,7 DVA,164,519,+,NEUTRAL 50%,Blue,7,F,F,CORRECT,1281,Draft,EPIC
ENDOATTNTASK,7 DVA,165,460,>,VALID 80%,Green,7,J,J,CORRECT,1140,Draft,EPIC
ENDOATTNTASK,7 DVA,166,348,<,VALID 80%,Yellow,-7,J,J,CORRECT,552,Draft,EPIC
ENDOATTNTASK,7 DVA,167,350,>,VALID 80%,Yellow,7,J,J,CORRECT,1000,Draft,EPIC
ENDOATTNTASK,7 DVA,168,356,+,NEUTRAL 50%,Green,-7,J,J,CORRECT,744,Draft,EPIC
ENDOATTNTASK,7 DVA,169,527,<,INVALID 20%,Red,7,F,F,CORRECT,573,Draft,EPIC
ENDOATTNTASK,7 DVA,170,355,>,VALID 80%,Red,7,F,F,CORRECT,1295,Draft,EPIC
ENDOATTNTASK,7 DVA,171,425,+,NEUTRAL 50%,Yellow,-7,J,J,CORRECT,1125,Draft,EPIC
ENDOATTNTASK,7 DVA,172,350,>,VALID 80%,Yellow,7,J,J,CORRECT,1100,Draft,EPIC
ENDOATTNTASK,7 DVA,173,360,<,VALID 80%,Yellow,-7,J,J,CORRECT,740,Draft,EPIC
ENDOATTNTASK,7 DVA,174,433,+,NEUTRAL 50%,Red,-7,F,F,CORRECT,617,Draft,EPIC
ENDOATTNTASK,7 DVA,175,451,<,VALID 80%,Yellow,-7,J,J,CORRECT,799,Draft,EPIC
ENDOATTNTASK,7 DVA,176,457,>,VALID 80%,Blue,7,F,F,CORRECT,643,Draft,EPIC
ENDOATTNTASK,7 DVA,177,476,>,VALID 80%,Green,7,J,J,CORRECT,1074,Draft,EPIC
ENDOATTNTASK,7 DVA,178,370,>,VALID 80%,Green,7,J,J,CORRECT,880,Draft,EPIC
ENDOATTNTASK,7 DVA,179,434,+,NEUTRAL 50%,Blue,-7,F,F,CORRECT,1216,Draft,EPIC
ENDOATTNTASK,7 DVA,180,469,>,VALID 80%,Green,7,J,J,CORRECT,1181,Draft,EPIC
ENDOATTNTASK,7 DVA,181,532,>,INVALID 20%,Red,-7,F,F,CORRECT,1168,Draft,EPIC
ENDOATTNTASK,7 DVA,182,435,+,NEUTRAL 50%,Green,-7,J,J,CORRECT,1065,Draft,EPIC
ENDOATTNTASK,7 DVA,183,372,>,VALID 80%,Yellow,7,J,J,CORRECT,978,Draft,EPIC
ENDOATTNTASK,7 DVA,184,550,>,INVALID 20%,Red,-7,F,F,CORRECT,1050,Draft,EPIC
ENDOATTNTASK,7 DVA,185,337,<,VALID 80%,Blue,-7,F,F,CORRECT,713,Draft,EPIC
ENDOATTNTASK,7 DVA,186,441,+,NEUTRAL 50%,Green,-7,J,J,CORRECT,1059,Draft,EPIC
ENDOATTNTASK,7 DVA,187,472,>,VALID 80%,Blue,7,F,F,CORRECT,1128,Draft,EPIC
ENDOATTNTASK,7 DVA,188,349,<,VALID 80%,Blue,-7,F,F,CORRECT,1201,Draft,EPIC
ENDOATTNTASK,7 DVA,189,424,+,NEUTRAL 50%,Red,7,F,F,CORRECT,1026,Draft,EPIC
ENDOATTNTASK,7 DVA,190,461,+,NEUTRAL 50%,Yellow,-7,J,J,CORRECT,689,Draft,EPIC
ENDOATTNTASK,7 DVA,191,452,>,VALID 80%,Blue,7,F,F,CORRECT,698,Draft,EPIC
ENDOATTNTASK,7 DVA,192,444,+,NEUTRAL 50%,Red,7,F,F,CORRECT,956,Draft,EPIC
ENDOATTNTASK,7 DVA,193,348,<,VALID 80%,Red,-7,F,F,CORRECT,502,Draft,EPIC
ENDOATTNTASK,7 DVA,194,340,+,NEUTRAL 50%,Red,-7,F,F,CORRECT,1160,Draft,EPIC
ENDOATTNTASK,7 DVA,195,547,+,NEUTRAL 50%,Yellow,7,J,J,CORRECT,1103,Draft,EPIC
ENDOATTNTASK,7 DVA,196,411,+,NEUTRAL 50%,Yellow,7,J,J,CORRECT,1189,Draft,EPIC
ENDOATTNTASK,7 DVA,197,470,<,VALID 80%,Red,-7,F,F,CORRECT,1080,Draft,EPIC
ENDOATTNTASK,7 DVA,198,531,+,NEUTRAL 50%,Green,7,J,J,CORRECT,1019,Draft,EPIC
ENDOATTNTASK,7 DVA,199,458,<,VALID 80%,Red,-7,F,F,CORRECT,742,Draft,EPIC
ENDOATTNTASK,7 DVA,200,324,+,NEUTRAL 50%,Blue,-7,F,F,CORRECT,976,Draft,EPIC
ENDOATTNTASK,7 DVA,1,476,<,VALID 80%,Yellow,-7,J,J,CORRECT,848,Draft,EPIC
ENDOATTNTASK,7 DVA,2,353,<,VALID 80%,Green,-7,J,J,CORRECT,1197,Draft,EPIC
ENDOATTNTASK,7 DVA,3,542,+,NEUTRAL 50%,Red,7,F,F,CORRECT,1258,Draft,EPIC
ENDOATTNTASK,7 DVA,4,427,<,INVALID 20%,Blue,7,F,F,CORRECT,923,Draft,EPIC
ENDOATTNTASK,7 DVA,5,426,+,NEUTRAL 50%,Blue,7,F,F,CORRECT,624,Draft,EPIC
ENDOATTNTASK,7 DVA,6,464,>,VALID 80%,Green,7,J,J,CORRECT,1236,Draft,EPIC
ENDOATTNTASK,7 DVA,7,351,+,NEUTRAL 50%,Yellow,-7,J,J,CORRECT,1249,Draft,EPIC
ENDOATTNTASK,7 DVA,8,452,>,VALID 80%,Blue,7,F,F,CORRECT,898,Draft,EPIC
ENDOATTNTASK,7 DVA,9,458,<,VALID 80%,Green,-7,J,J,CORRECT,1192,Draft,EPIC
ENDOATTNTASK,7 DVA,10,452,+,NEUTRAL 50%,Green,7,J,J,CORRECT,1298,Draft,EPIC
ENDOATTNTASK,7 DVA,11,353,+,NEUTRAL 50%,Yellow,-7,J,J,CORRECT,1297,Draft,EPIC
ENDOATTNTASK,7 DVA,12,451,>,VALID 80%,Blue,7,F,F,CORRECT,799,Draft,EPIC
ENDOATTNTASK,7 DVA,13,460,>,VALID 80%,Green,7,J,J,CORRECT,640,Draft,EPIC
ENDOATTNTASK,7 DVA,14,360,>,VALID 80%,Green,7,J,J,CORRECT,540,Draft,EPIC
ENDOATTNTASK,7 DVA,15,325,<,VALID 80%,Yellow,-7,J,J,CORRECT,525,Draft,EPIC
ENDOATTNTASK,7 DVA,16,451,<,INVALID 20%,Yellow,7,J,J,CORRECT,699,Draft,EPIC
ENDOATTNTASK,7 DVA,17,423,<,VALID 80%,Blue,-7,F,F,CORRECT,1127,Draft,EPIC
ENDOATTNTASK,7 DVA,18,447,+,NEUTRAL 50%,Yellow,-7,J,J,CORRECT,703,Draft,EPIC
ENDOATTNTASK,7 DVA,19,327,<,VALID 80%,Yellow,-7,J,J,CORRECT,573,Draft,EPIC
ENDOATTNTASK,7 DVA,20,366,>,VALID 80%,Yellow,7,J,J,CORRECT,634,Draft,EPIC
ENDOATTNTASK,7 DVA,21,452,+,NEUTRAL 50%,Yellow,7,J,J,CORRECT,1148,Draft,EPIC
ENDOATTNTASK,7 DVA,22,338,+,NEUTRAL 50%,Yellow,-7,J,J,CORRECT,862,Draft,EPIC
ENDOATTNTASK,7 DVA,23,356,<,VALID 80%,Green,-7,J,J,CORRECT,544,Draft,EPIC
ENDOATTNTASK,7 DVA,24,457,+,NEUTRAL 50%,Blue,-7,F,F,CORRECT,993,Draft,EPIC
ENDOATTNTASK,7 DVA,25,350,>,VALID 80%,Blue,7,F,F,CORRECT,800,Draft,EPIC
ENDOATTNTASK,7 DVA,26,340,>,VALID 80%,Red,7,F,F,CORRECT,1110,Draft,EPIC
ENDOATTNTASK,7 DVA,27,539,+,NEUTRAL 50%,Yellow,7,J,J,CORRECT,761,Draft,EPIC
ENDOATTNTASK,7 DVA,28,367,>,VALID 80%,Green,7,J,J,CORRECT,633,Draft,EPIC
ENDOATTNTASK,7 DVA,29,568,>,INVALID 20%,Red,-7,F,F,CORRECT,632,Draft,EPIC
ENDOATTNTASK,7 DVA,30,540,+,NEUTRAL 50%,Yellow,7,J,J,CORRECT,1210,Draft,EPIC
ENDOATTNTASK,7 DVA,31,436,+,NEUTRAL 50%,Green,7,J,J,CORRECT,1064,Draft,EPIC
ENDOATTNTASK,7 DVA,32,331,+,NEUTRAL 50%,Green,-7,J,J,CORRECT,969,Draft,EPIC
ENDOATTNTASK,7 DVA,33,461,<,VALID 80%,Red,-7,F,F,CORRECT,639,Draft,EPIC
ENDOATTNTASK,7 DVA,34,362,<,VALID 80%,Red,-7,F,F,CORRECT,788,Draft,EPIC
ENDOATTNTASK,7 DVA,35,332,+,NEUTRAL 50%,Blue,-7,F,F,CORRECT,1068,Draft,EPIC
ENDOATTNTASK,7 DVA,36,425,+,NEUTRAL 50%,Red,7,F,F,CORRECT,525,Draft,EPIC
ENDOATTNTASK,7 DVA,37,423,<,INVALID 20%,Blue,7,F,F,CORRECT,727,Draft,EPIC
ENDOATTNTASK,7 DVA,38,517,+,NEUTRAL 50%,Yellow,7,J,J,CORRECT,1133,Draft,EPIC
ENDOATTNTASK,7 DVA,39,509,<,INVALID 20%,Red,7,F,F,CORRECT,1291,Draft,EPIC
ENDOATTNTASK,7 DVA,40,475,>,VALID 80%,Green,7,J,J,CORRECT,775,Draft,EPIC
ENDOATTNTASK,7 DVA,41,524,+,NEUTRAL 50%,Blue,7,F,F,CORRECT,726,Draft,EPIC
ENDOATTNTASK,7 DVA,42,467,+,NEUTRAL 50%,Green,-7,J,J,CORRECT,683,Draft,EPIC
ENDOATTNTASK,7 DVA,43,360,<,VALID 80%,Green,-7,J,J,CORRECT,890,Draft,EPIC
ENDOATTNTASK,7 DVA,44,452,<,VALID 80%,Red,-7,F,F,CORRECT,698,Draft,EPIC
ENDOATTNTASK,7 DVA,45,452,<,VALID 80%,Green,-7,J,J,CORRECT,1148,Draft,EPIC
ENDOATTNTASK,7 DVA,46,441,+,NEUTRAL 50%,Yellow,7,J,J,CORRECT,609,Draft,EPIC
ENDOATTNTASK,7 DVA,47,447,<,VALID 80%,Blue,-7,F,F,CORRECT,653,Draft,EPIC
ENDOATTNTASK,7 DVA,48,449,+,NEUTRAL 50%,Yellow,-7,J,J,CORRECT,801,Draft,EPIC
ENDOATTNTASK,7 DVA,49,370,>,VALID 80%,Green,7,J,J,CORRECT,980,Draft,EPIC
ENDOATTNTASK,7 DVA,50,338,+,NEUTRAL 50%,Yellow,-7,J,J,CORRECT,1212,Draft,EPIC
ENDOATTNTASK,7 DVA,51,419,<,INVALID 20%,Yellow,7,J,J,CORRECT,931,Draft,EPIC
ENDOATTNTASK,7 DVA,52,428,+,NEUTRAL 50%,Yellow,7,J,J,CORRECT,722,Draft,EPIC
ENDOATTNTASK,7 DVA,53,339,>,VALID 80%,Yellow,7,J,J,CORRECT,1011,Draft,EPIC
ENDOATTNTASK,7 DVA,54,467,<,VALID 80%,Blue,-7,F,F,CORRECT,983,Draft,EPIC
ENDOATTNTASK,7 DVA,55,545,+,NEUTRAL 50%,Yellow,7,J,J,CORRECT,505,Draft,EPIC
ENDOATTNTASK,7 DVA,56,520,<,INVALID 20%,Blue,7,F,F,CORRECT,1080,Draft,EPIC
ENDOATTNTASK,7 DVA,57,412,+,NEUTRAL 50%,Blue,7,F,F,CORRECT,738,Draft,EPIC
ENDOATTNTASK,7 DVA,58,324,<,VALID 80%,Red,-7,F,F,CORRECT,576,Draft,EPIC
ENDOATTNTASK,7 DVA,59,442,+,NEUTRAL 50%,Blue,7,F,F,CORRECT,658,Draft,EPIC
ENDOATTNTASK,7 DVA,60,468,>,VALID 80%,Green,7,J,J,CORRECT,1082,Draft,EPIC
ENDOATTNTASK,7 DVA,61,338,>,VALID 80%,Green,7,J,J,CORRECT,962,Draft,EPIC
ENDOATTNTASK,7 DVA,62,348,<,VALID 80%,Green,-7,J,J,CORRECT,952,Draft,EPIC
ENDOATTNTASK,7 DVA,63,447,<,VALID 80%,Red,-7,F,F,CORRECT,953,Draft,EPIC
ENDOATTNTASK,7 DVA,64,458,<,VALID 80%,Yellow,-7,J,J,CORRECT,1142,Draft,EPIC
ENDOATTNTASK,7 DVA,65,558,+,NEUTRAL 50%,Red,7,F,F,CORRECT,542,Draft,EPIC
ENDOATTNTASK,7 DVA,66,330,<,VALID 80%,Blue,-7,F,F,CORRECT,1220,Draft,EPIC
ENDOATTNTASK,7 DVA,67,464,+,NEUTRAL 50%,Green,-7,J,J,CORRECT,1186,Draft,EPIC
ENDOATTNTASK,7 DVA,68,370,<,VALID 80%,Green,-7,J,J,CORRECT,930,Draft,EPIC
ENDOATTNTASK,7 DVA,69,516,<,INVALID 20%,Blue,7,F,F,CORRECT,1034,Draft,EPIC
ENDOATTNTASK,7 DVA,70,334,+,NEUTRAL 50%,Red,-7,F,F,CORRECT,916,Draft,EPIC
ENDOATTNTASK,7 DVA,71,340,>,VALID 80%,Blue,7,F,F,CORRECT,760,Draft,EPIC
ENDOATTNTASK,7 DVA,72,339,>,VALID 80%,Red,7,F,F,CORRECT,711,Draft,EPIC
ENDOATTNTASK,7 DVA,73,438,+,NEUTRAL 50%,Yellow,-7,J,J,CORRECT,1162,Draft,EPIC
ENDOATTNTASK,7 DVA,74,546,>,INVALID 20%,Blue,-7,F,F,CORRECT,1254,Draft,EPIC
ENDOATTNTASK,7 DVA,75,442,+,NEUTRAL 50%,Red,7,F,F,CORRECT,1208,Draft,EPIC
ENDOATTNTASK,7 DVA,76,529,+,NEUTRAL 50%,Green,7,J,J,CORRECT,1271,Draft,EPIC
ENDOATTNTASK,7 DVA,77,413,+,NEUTRAL 50%,Yellow,7,J,J,CORRECT,687,Draft,EPIC
ENDOATTNTASK,7 DVA,78,447,>,VALID 80%,Red,7,F,F,CORRECT,703,Draft,EPIC
ENDOATTNTASK,7 DVA,79,370,+,NEUTRAL 50%,Blue,-7,F,F,CORRECT,680,Draft,EPIC
ENDOATTNTASK,7 DVA,80,356,+,NEUTRAL 50%,Red,-7,F,F,CORRECT,744,Draft,EPIC
ENDOATTNTASK,7 DVA,81,369,<,VALID 80%,Red,-7,F,F,CORRECT,581,Draft,EPIC
ENDOATTNTASK,7 DVA,82,358,<,VALID 80%,Red,-7,F,F,CORRECT,1292,Draft,EPIC
ENDOATTNTASK,7 DVA,83,437,<,VALID 80%,Green,-7,J,J,CORRECT,763,Draft,EPIC
ENDOATTNTASK,7 DVA,84,367,<,VALID 80%,Green,-7,J,J,CORRECT,883,Draft,EPIC
ENDOATTNTASK,7 DVA,85,431,<,VALID 80%,Red,-7,F,F,CORRECT,519,Draft,EPIC
ENDOATTNTASK,7 DVA,86,350,+,NEUTRAL 50%,Red,-7,F,F,CORRECT,550,Draft,EPIC
ENDOATTNTASK,7 DVA,87,322,<,VALID 80%,Blue,-7,F,F,CORRECT,1228,Draft,EPIC
ENDOATTNTASK,7 DVA,88,425,<,VALID 80%,Yellow,-7,J,J,CORRECT,975,Draft,EPIC
ENDOATTNTASK,7 DVA,89,434,+,NEUTRAL 50%,Blue,-7,F,F,CORRECT,716,Draft,EPIC
ENDOATTNTASK,7 DVA,90,341,<,VALID 80%,Blue,-7,F,F,CORRECT,859,Draft,EPIC
ENDOATTNTASK,7 DVA,91,460,<,VALID 80%,Green,-7,J,J,CORRECT,690,Draft,EPIC
ENDOATTNTASK,7 DVA,92,371,>,VALID 80%,Green,7,J,J,CORRECT,879,Draft,EPIC
ENDOATTNTASK,7 DVA,93,535,>,INVALID 20%,Blue,-7,F,F,CORRECT,865,Draft,EPIC
ENDOATTNTASK,7 DVA,94,326,+,NEUTRAL 50%,Blue,-7,F,F,CORRECT,624,Draft,EPIC
ENDOATTNTASK,7 DVA,95,441,>,VALID 80%,Yellow,7,J,J,CORRECT,1059,Draft,EPIC
ENDOATTNTASK,7 DVA,96,360,>,VALID 80%,Green,7,J,J,CORRECT,1190,Draft,EPIC
ENDOATTNTASK,7 DVA,97,410,<,INVALID 20%,Yellow,7,J,J,CORRECT,1190,Draft,EPIC
ENDOATTNTASK,7 DVA,98,465,>,VALID 80%,Blue,7,F,F,CORRECT,1235,Draft,EPIC
ENDOATTNTASK,7 DVA,99,545,+,NEUTRAL 50%,Yellow,7,J,J,CORRECT,555,Draft,EPIC
ENDOATTNTASK,7 DVA,100,528,>,INVALID 20%,Blue,-7,F,F,CORRECT,922,Draft,EPIC
ENDOATTNTASK,7 DVA,101,525,+,NEUTRAL 50%,Yellow,7,J,J,CORRECT,1275,Draft,EPIC
ENDOATTNTASK,7 DVA,102,410,+,NEUTRAL 50%,Green,7,J,J,CORRECT,590,Draft,EPIC
ENDOATTNTASK,7 DVA,103,370,>,VALID 80%,Green,7,J,J,CORRECT,1230,Draft,EPIC
ENDOATTNTASK,7 DVA,104,347,<,VALID 80%,Green,-7,J,J,CORRECT,903,Draft,EPIC
ENDOATTNTASK,7 DVA,105,464,>,INVALID 20%,Green,-7,J,J,CORRECT,686,Draft,EPIC
ENDOATTNTASK,7 DVA,106,531,+,NEUTRAL 50%,Red,7,F,F,CORRECT,919,Draft,EPIC
ENDOATTNTASK,7 DVA,107,356,>,VALID 80%,Red,7,F,F,CORRECT,544,Draft,EPIC
ENDOATTNTASK,7 DVA,108,435,+,NEUTRAL 50%,Green,-7,J,J,CORRECT,915,Draft,EPIC
ENDOATTNTASK,7 DVA,109,556,<,INVALID 20%,Red,7,F,F,CORRECT,994,Draft,EPIC
ENDOATTNTASK,7 DVA,110,330,<,VALID 80%,Blue,-7,F,F,CORRECT,1070,Draft,EPIC
ENDOATTNTASK,7 DVA,111,443,+,NEUTRAL 50%,Yellow,-7,J,J,CORRECT,1057,Draft,EPIC
ENDOATTNTASK,7 DVA,112,340,+,NEUTRAL 50%,Yellow,-7,J,J,CORRECT,1010,Draft,EPIC
ENDOATTNTASK,7 DVA,113,457,<,VALID 80%,Red,-7,F,F,CORRECT,593,Draft,EPIC
ENDOATTNTASK,7 DVA,114,343,+,NEUTRAL 50%,Red,-7,F,F,CORRECT,1107,Draft,EPIC
ENDOATTNTASK,7 DVA,115,445,<,VALID 80%,Green,-7,J,J,CORRECT,855,Draft,EPIC
ENDOATTNTASK,7 DVA,116,338,+,NEUTRAL 50%,Yellow,-7,J,J,CORRECT,762,Draft,EPIC
ENDOATTNTASK,7 DVA,117,438,<,VALID 80%,Blue,-7,F,F,CORRECT,562,Draft,EPIC
ENDOATTNTASK,7 DVA,118,430,>,VALID 80%,Green,7,J,J,CORRECT,520,Draft,EPIC
ENDOATTNTASK,7 DVA,119,348,>,VALID 80%,Green,7,J,J,CORRECT,1002,Draft,EPIC
ENDOATTNTASK,7 DVA,120,440,+,NEUTRAL 50%,Blue,-7,F,F,CORRECT,910,Draft,EPIC
ENDOATTNTASK,7 DVA,121,432,<,VALID 80%,Yellow,-7,J,J,CORRECT,1218,Draft,EPIC
ENDOATTNTASK,7 DVA,122,415,<,INVALID 20%,Yellow,7,J,J,CORRECT,585,Draft,EPIC
ENDOATTNTASK,7 DVA,123,336,<,VALID 80%,Yellow,-7,J,J,CORRECT,664,Draft,EPIC
ENDOATTNTASK,7 DVA,124,432,>,VALID 80%,Red,7,F,F,CORRECT,718,Draft,EPIC
ENDOATTNTASK,7 DVA,125,366,>,VALID 80%,Blue,7,F,F,CORRECT,1184,Draft,EPIC
ENDOATTNTASK,7 DVA,126,536,>,INVALID 20%,Yellow,-7,J,J,CORRECT,514,Draft,EPIC
ENDOATTNTASK,7 DVA,127,434,<,VALID 80%,Blue,-7,F,F,CORRECT,666,Draft,EPIC
ENDOATTNTASK,7 DVA,128,445,>,INVALID 20%,Red,-7,F,F,CORRECT,705,Draft,EPIC
ENDOATTNTASK,7 DVA,129,446,>,INVALID 20%,Red,-7,F,F,CORRECT,504,Draft,EPIC
ENDOATTNTASK,7 DVA,130,455,+,NEUTRAL 50%,Red,7,F,F,CORRECT,1195,Draft,EPIC
ENDOATTNTASK,7 DVA,131,443,>,VALID 80%,Green,7,J,J,CORRECT,807,Draft,EPIC
ENDOATTNTASK,7 DVA,132,417,<,INVALID 20%,Green,7,J,J,CORRECT,1183,Draft,EPIC
ENDOATTNTASK,7 DVA,133,444,+,NEUTRAL 50%,Green,7,J,J,CORRECT,1006,Draft,EPIC
ENDOATTNTASK,7 DVA,134,339,<,VALID 80%,Yellow,-7,J,J,CORRECT,1111,Draft,EPIC
ENDOATTNTASK,7 DVA,135,534,>,INVALID 20%,Blue,-7,F,F,CORRECT,816,Draft,EPIC
ENDOATTNTASK,7 DVA,136,450,<,VALID 80%,Yellow,-7,J,J,CORRECT,1150,Draft,EPIC
ENDOATTNTASK,7 DVA,137,468,>,VALID 80%,Blue,7,F,F,CORRECT,582,Draft,EPIC
ENDOATTNTASK,7 DVA,138,428,>,INVALID 20%,Blue,-7,F,F,CORRECT,1072,Draft,EPIC
ENDOATTNTASK,7 DVA,139,440,<,VALID 80%,Yellow,-7,J,J,CORRECT,1060,Draft,EPIC
ENDOATTNTASK,7 DVA,140,326,+,NEUTRAL 50%,Yellow,-7,J,J,CORRECT,874,Draft,EPIC
ENDOATTNTASK,7 DVA,141,564,>,INVALID 20%,Red,-7,F,F,CORRECT,636,Draft,EPIC
ENDOATTNTASK,7 DVA,142,377,>,VALID 80%,Blue,7,F,F,CORRECT,673,Draft,EPIC
ENDOATTNTASK,7 DVA,143,420,>,INVALID 20%,Red,-7,F,F,CORRECT,830,Draft,EPIC
ENDOATTNTASK,7 DVA,144,474,>,VALID 80%,Green,7,J,J,CORRECT,1176,Draft,EPIC
ENDOATTNTASK,7 DVA,145,441,<,VALID 80%,Blue,-7,F,F,CORRECT,1059,Draft,EPIC
ENDOATTNTASK,7 DVA,146,427,+,NEUTRAL 50%,Yellow,-7,J,J,CORRECT,623,Draft,EPIC
ENDOATTNTASK,7 DVA,147,344,<,VALID 80%,Yellow,-7,J,J,CORRECT,706,Draft,EPIC
ENDOATTNTASK,7 DVA,148,467,>,VALID 80%,Blue,7,F,F,CORRECT,883,Draft,EPIC
ENDOATTNTASK,7 DVA,149,464,+,NEUTRAL 50%,Green,-7,J,J,CORRECT,1286,Draft,EPIC
ENDOATTNTASK,7 DVA,150,360,+,NEUTRAL 50%,Yellow,-7,J,J,CORRECT,990,Draft,EPIC
ENDOATTNTASK,7 DVA,151,357,>,VALID 80%,Green,7,J,J,CORRECT,1193,Draft,EPIC
ENDOATTNTASK,7 DVA,152,459,<,VALID 80%,Blue,-7,F,F,CORRECT,541,Draft,EPIC
ENDOATTNTASK,7 DVA,153,334,>,VALID 80%,Red,7,F,F,CORRECT,1066,Draft,EPIC
ENDOATTNTASK,7 DVA,154,363,>,VALID 80%,Red,7,F,F,CORRECT,637,Draft,EPIC
ENDOATTNTASK,7 DVA,155,456,<,VALID 80%,Yellow,-7,J,J,CORRECT,1144,Draft,EPIC
ENDOATTNTASK,7 DVA,156,365,>,VALID 80%,Yellow,7,J,J,CORRECT,1185,Draft,EPIC
ENDOATTNTASK,7 DVA,157,449,>,VALID 80%,Blue,7,F,F,CORRECT,1101,Draft,EPIC
ENDOATTNTASK,7 DVA,158,449,+,NEUTRAL 50%,Yellow,-7,J,J,CORRECT,1201,Draft,EPIC
ENDOATTNTASK,7 DVA,159,419,+,NEUTRAL 50%,Yellow,7,J,J,CORRECT,1081,Draft,EPIC
ENDOATTNTASK,7 DVA,160,423,<,INVALID 20%,Green,7,J,J,CORRECT,1027,Draft,EPIC
ENDOATTNTASK,7 DVA,161,544,<,INVALID 20%,Red,7,F,F,CORRECT,956,Draft,EPIC
ENDOATTNTASK,7 DVA,162,427,<,INVALID 20%,Red,7,F,F,CORRECT,1273,Draft,EPIC
ENDOATTNTASK,7 DVA,163,432,<,INVALID 20%,Red,7,F,F,CORRECT,668,Draft,EPIC
ENDOATTNTASK,7 DVA,164,524,>,INVALID 20%,Green,-7,J,J,CORRECT,1176,Draft,EPIC
ENDOATTNTASK,7 DVA,165,440,>,VALID 80%,Red,7,F,F,CORRECT,560,Draft,EPIC
ENDOATTNTASK,7 DVA,166,448,+,NEUTRAL 50%,Blue,7,F,F,CORRECT,1052,Draft,EPIC
ENDOATTNTASK,7 DVA,167,352,<,VALID 80%,Red,-7,F,F,CORRECT,948,Draft,EPIC
ENDOATTNTASK,7 DVA,168,332,<,VALID 80%,Blue,-7,F,F,CORRECT,1018,Draft,EPIC
ENDOATTNTASK,7 DVA,169,417,+,NEUTRAL 50%,Blue,7,F,F,CORRECT,833,Draft,EPIC
ENDOATTNTASK,7 DVA,170,448,<,INVALID 20%,Blue,7,F,F,CORRECT,1102,Draft,EPIC
ENDOATTNTASK,7 DVA,171,337,<,VALID 80%,Blue,-7,F,F,CORRECT,1213,Draft,EPIC
ENDOATTNTASK,7 DVA,172,459,>,VALID 80%,Yellow,7,J,J,CORRECT,841,Draft,EPIC
ENDOATTNTASK,7 DVA,173,322,<,VALID 80%,Yellow,-7,J,J,CORRECT,978,Draft,EPIC
ENDOATTNTASK,7 DVA,174,372,>,VALID 80%,Green,7,J,J,CORRECT,678,Draft,EPIC
ENDOATTNTASK,7 DVA,175,435,<,INVALID 20%,Green,7,J,J,CORRECT,1165,Draft,EPIC
ENDOATTNTASK,7 DVA,176,468,>,VALID 80%,Red,7,F,F,CORRECT,732,Draft,EPIC
ENDOATTNTASK,7 DVA,177,528,+,NEUTRAL 50%,Green,7,J,J,CORRECT,1022,Draft,EPIC
ENDOATTNTASK,7 DVA,178,454,<,VALID 80%,Blue,-7,F,F,CORRECT,1046,Draft,EPIC
ENDOATTNTASK,7 DVA,179,351,>,VALID 80%,Red,7,F,F,CORRECT,599,Draft,EPIC
ENDOATTNTASK,7 DVA,180,526,>,INVALID 20%,Green,-7,J,J,CORRECT,1024,Draft,EPIC
ENDOATTNTASK,7 DVA,181,447,+,NEUTRAL 50%,Red,-7,F,F,CORRECT,1103,Draft,EPIC
ENDOATTNTASK,7 DVA,182,536,<,INVALID 20%,Yellow,7,J,J,CORRECT,764,Draft,EPIC
ENDOATTNTASK,7 DVA,183,331,+,NEUTRAL 50%,Yellow,-7,J,J,CORRECT,1269,Draft,EPIC
ENDOATTNTASK,7 DVA,184,460,>,VALID 80%,Blue,7,F,F,CORRECT,940,Draft,EPIC
ENDOATTNTASK,7 DVA,185,459,>,VALID 80%,Yellow,7,J,J,CORRECT,1191,Draft,EPIC
ENDOATTNTASK,7 DVA,186,338,>,VALID 80%,Yellow,7,J,J,CORRECT,1212,Draft,EPIC
ENDOATTNTASK,7 DVA,187,531,<,INVALID 20%,Blue,7,F,F,CORRECT,919,Draft,EPIC
ENDOATTNTASK,7 DVA,188,409,+,NEUTRAL 50%,Red,7,F,F,CORRECT,991,Draft,EPIC
ENDOATTNTASK,7 DVA,189,369,>,VALID 80%,Red,7,F,F,CORRECT,1181,Draft,EPIC
ENDOATTNTASK,7 DVA,190,419,+,NEUTRAL 50%,Blue,7,F,F,CORRECT,631,Draft,EPIC
ENDOATTNTASK,7 DVA,191,468,+,NEUTRAL 50%,Yellow,-7,J,J,CORRECT,1082,Draft,EPIC
ENDOATTNTASK,7 DVA,192,336,+,NEUTRAL 50%,Yellow,-7,J,J,CORRECT,1264,Draft,EPIC
ENDOATTNTASK,7 DVA,193,428,+,NEUTRAL 50%,Blue,-7,F,F,CORRECT,972,Draft,EPIC
ENDOATTNTASK,7 DVA,194,448,<,VALID 80%,Yellow,-7,J,J,CORRECT,502,Draft,EPIC
ENDOATTNTASK,7 DVA,195,449,>,VALID 80%,Red,7,F,F,CORRECT,1101,Draft,EPIC
ENDOATTNTASK,7 DVA,196,558,>,INVALID 20%,Green,-7,J,J,CORRECT,592,Draft,EPIC
ENDOATTNTASK,7 DVA,197,452,+,NEUTRAL 50%,Red,-7,F,F,CORRECT,948,Draft,EPIC
ENDOATTNTASK,7 DVA,198,448,+,NEUTRAL 50%,Yellow,-7,J,J,CORRECT,752,Draft,EPIC
ENDOATTNTASK,7 DVA,199,439,+,NEUTRAL 50%,Red,-7,F,F,CORRECT,561,Draft,EPIC
ENDOATTNTASK,7 DVA,200,430,<,VALID 80%,Green,-7,J,J,CORRECT,570,Draft,EPIC
ENDOATTNTASK,7 DVA,1,487,+,NEUTRAL 50%,Red,-7,F,F,CORRECT,1237,Draft,EPIC
ENDOATTNTASK,7 DVA,2,426,+,NEUTRAL 50%,Green,-7,J,J,CORRECT,1274,Draft,EPIC
ENDOATTNTASK,7 DVA,3,453,>,VALID 80%,Blue,7,F,F,CORRECT,1097,Draft,EPIC
ENDOATTNTASK,7 DVA,4,427,+,NEUTRAL 50%,Blue,7,F,F,CORRECT,673,Draft,EPIC
ENDOATTNTASK,7 DVA,5,424,+,NEUTRAL 50%,Yellow,-7,J,J,CORRECT,826,Draft,EPIC
ENDOATTNTASK,7 DVA,6,424,<,VALID 80%,Red,-7,F,F,CORRECT,676,Draft,EPIC
ENDOATTNTASK,7 DVA,7,552,<,INVALID 20%,Yellow,7,J,J,CORRECT,1248,Draft,EPIC
ENDOATTNTASK,7 DVA,8,462,>,VALID 80%,Red,7,F,F,CORRECT,888,Draft,EPIC
ENDOATTNTASK,7 DVA,9,509,<,INVALID 20%,Green,7,J,J,CORRECT,641,Draft,EPIC
ENDOATTNTASK,7 DVA,10,344,<,VALID 80%,Yellow,-7,J,J,CORRECT,656,Draft,EPIC
ENDOATTNTASK,7 DVA,11,323,<,VALID 80%,Green,-7,J,J,CORRECT,527,Draft,EPIC
ENDOATTNTASK,7 DVA,12,436,+,NEUTRAL 50%,Yellow,7,J,J,CORRECT,1164,Draft,EPIC
ENDOATTNTASK,7 DVA,13,350,<,VALID 80%,Yellow,-7,J,J,CORRECT,800,Draft,EPIC
ENDOATTNTASK,7 DVA,14,436,<,VALID 80%,Blue,-7,F,F,CORRECT,764,Draft,EPIC
ENDOATTNTASK,7 DVA,15,466,>,VALID 80%,Yellow,7,J,J,CORRECT,934,Draft,EPIC
ENDOATTNTASK,7 DVA,16,422,+,NEUTRAL 50%,Red,-7,F,F,CORRECT,1278,Draft,EPIC
ENDOATTNTASK,7 DVA,17,433,>,VALID 80%,Yellow,7,J,J,CORRECT,867,Draft,EPIC
ENDOATTNTASK,7 DVA,18,343,>,VALID 80%,Yellow,7,J,J,CORRECT,707,Draft,EPIC
ENDOATTNTASK,7 DVA,19,449,<,VALID 80%,Red,-7,F,F,CORRECT,651,Draft,EPIC
ENDOATTNTASK,7 DVA,20,425,<,VALID 80%,Yellow,-7,J,J,CORRECT,1225,Draft,EPIC
ENDOATTNTASK,7 DVA,21,441,>,INVALID 20%,Green,-7,J,J,CORRECT,609,Draft,EPIC
ENDOATTNTASK,7 DVA,22,436,+,NEUTRAL 50%,Yellow,7,J,J,CORRECT,564,Draft,EPIC
ENDOATTNTASK,7 DVA,23,452,+,NEUTRAL 50%,Yellow,7,J,J,CORRECT,998,Draft,EPIC
ENDOATTNTASK,7 DVA,24,366,>,VALID 80%,Yellow,7,J,J,CORRECT,584,Draft,EPIC
ENDOATTNTASK,7 DVA,25,456,<,VALID 80%,Blue,-7,F,F,CORRECT,894,Draft,EPIC
ENDOATTNTASK,7 DVA,26,369,>,VALID 80%,Blue,7,F,F,CORRECT,731,Draft,EPIC
ENDOATTNTASK,7 DVA,27,445,+,NEUTRAL 50%,Blue,7,F,F,CORRECT,655,Draft,EPIC
ENDOATTNTASK,7 DVA,28,455,+,NEUTRAL 50%,Yellow,-7,J,J,CORRECT,845,Draft,EPIC
ENDOATTNTASK,7 DVA,29,358,+,NEUTRAL 50%,Green,-7,J,J,CORRECT,792,Draft,EPIC
ENDOATTNTASK,7 DVA,30,333,<,VALID 80%,Green,-7,J,J,CORRECT,1267,Draft,EPIC
ENDOATTNTASK,7 DVA,31,329,<,VALID 80%,Green,-7,J,J,CORRECT,571,Draft,EPIC
ENDOATTNTASK,7 DVA,32,353,>,VALID 80%,Green,7,J,J,CORRECT,547,Draft,EPIC
ENDOATTNTASK,7 DVA,33,446,>,INVALID 20%,Green,-7,J,J,CORRECT,954,Draft,EPIC
ENDOATTNTASK,7 DVA,34,438,+,NEUTRAL 50%,Green,7,J,J,CORRECT,1212,Draft,EPIC
ENDOATTNTASK,7 DVA,35,537,>,INVALID 20%,Red,-7,F,F,CORRECT,813,Draft,EPIC
ENDOATTNTASK,7 DVA,36,461,>,VALID 80%,Yellow,7,J,J,CORRECT,1189,Draft,EPIC
ENDOATTNTASK,7 DVA,37,327,+,NEUTRAL 50%,Green,-7,J,J,CORRECT,1023,Draft,EPIC
ENDOATTNTASK,7 DVA,38,334,<,VALID 80%,Yellow,-7,J,J,CORRECT,816,Draft,EPIC
ENDOATTNTASK,7 DVA,39,455,+,NEUTRAL 50%,Blue,-7,F,F,CORRECT,995,Draft,EPIC
ENDOATTNTASK,7 DVA,40,435,<,INVALID 20%,Blue,7,F,F,CORRECT,1065,Draft,EPIC
ENDOATTNTASK,7 DVA,41,450,+,NEUTRAL 50%,Green,-7,J,J,CORRECT,750,Draft,EPIC
ENDOATTNTASK,7 DVA,42,438,<,VALID 80%,Blue,-7,F,F,CORRECT,1162,Draft,EPIC
ENDOATTNTASK,7 DVA,43,365,<,VALID 80%,Blue,-7,F,F,CORRECT,735,Draft,EPIC
ENDOATTNTASK,7 DVA,44,554,<,INVALID 20%,Green,7,J,J,CORRECT,1046,Draft,EPIC
ENDOATTNTASK,7 DVA,45,447,<,VALID 80%,Red,-7,F,F,CORRECT,503,Draft,EPIC
ENDOATTNTASK,7 DVA,46,331,>,VALID 80%,Blue,7,F,F,CORRECT,519,Draft,EPIC
ENDOATTNTASK,7 DVA,47,367,<,VALID 80%,Blue,-7,F,F,CORRECT,1283,Draft,EPIC
ENDOATTNTASK,7 DVA,48,468,>,VALID 80%,Green,7,J,J,CORRECT,1182,Draft,EPIC
ENDOATTNTASK,7 DVA,49,422,<,INVALID 20%,Yellow,7,J,J,CORRECT,1078,Draft,EPIC
ENDOATTNTASK,7 DVA,50,440,<,VALID 80%,Red,-7,F,F,CORRECT,1160,Draft,EPIC
ENDOATTNTASK,7 DVA,51,509,+,NEUTRAL 50%,Green,7,J,J,CORRECT,591,Draft,EPIC
ENDOATTNTASK,7 DVA,52,417,+,NEUTRAL 50%,Yellow,7,J,J,CORRECT,1183,Draft,EPIC
ENDOATTNTASK,7 DVA,53,355,<,VALID 80%,Green,-7,J,J,CORRECT,595,Draft,EPIC
ENDOATTNTASK,7 DVA,54,351,>,VALID 80%,Green,7,J,J,CORRECT,1199,Draft,EPIC
ENDOATTNTASK,7 DVA,55,468,>,VALID 80%,Red,7,F,F,CORRECT,782,Draft,EPIC
ENDOATTNTASK,7 DVA,56,458,+,NEUTRAL 50%,Green,-7,J,J,CORRECT,1142,Draft,EPIC
ENDOATTNTASK,7 DVA,57,349,>,VALID 80%,Yellow,7,J,J,CORRECT,1051,Draft,EPIC
ENDOATTNTASK,7 DVA,58,442,+,NEUTRAL 50%,Yellow,7,J,J,CORRECT,1058,Draft,EPIC
ENDOATTNTASK,7 DVA,59,530,+,NEUTRAL 50%,Blue,7,F,F,CORRECT,1070,Draft,EPIC
ENDOATTNTASK,7 DVA,60,363,<,VALID 80%,Blue,-7,F,F,CORRECT,1287,Draft,EPIC
ENDOATTNTASK,7 DVA,61,534,>,INVALID 20%,Yellow,-7,J,J,CORRECT,566,Draft,EPIC
ENDOATTNTASK,7 DVA,62,373,>,VALID 80%,Green,7,J,J,CORRECT,677,Draft,EPIC
ENDOATTNTASK,7 DVA,63,330,+,NEUTRAL 50%,Green,-7,J,J,CORRECT,1270,Draft,EPIC
ENDOATTNTASK,7 DVA,64,446,>,VALID 80%,Blue,7,F,F,CORRECT,804,Draft,EPIC
ENDOATTNTASK,7 DVA,65,348,<,VALID 80%,Red,-7,F,F,CORRECT,752,Draft,EPIC
ENDOATTNTASK,7 DVA,66,351,<,VALID 80%,Red,-7,F,F,CORRECT,1149,Draft,EPIC
ENDOATTNTASK,7 DVA,67,527,+,NEUTRAL 50%,Green,7,J,J,CORRECT,1023,Draft,EPIC
ENDOATTNTASK,7 DVA,68,453,+,NEUTRAL 50%,Blue,-7,F,F,CORRECT,897,Draft,EPIC
ENDOATTNTASK,7 DVA,69,341,<,VALID 80%,Blue,-7,F,F,CORRECT,709,Draft,EPIC
ENDOATTNTASK,7 DVA,70,461,>,VALID 80%,Green,7,J,J,CORRECT,989,Draft,EPIC
ENDOATTNTASK,7 DVA,71,475,>,VALID 80%,Blue,7,F,F,CORRECT,625,Draft,EPIC
ENDOATTNTASK,7 DVA,72,346,<,VALID 80%,Blue,-7,F,F,CORRECT,1204,Draft,EPIC
ENDOATTNTASK,7 DVA,73,453,>,INVALID 20%,Blue,-7,F,F,CORRECT,647,Draft,EPIC
ENDOATTNTASK,7 DVA,74,322,<,VALID 80%,Blue,-7,F,F,CORRECT,828,Draft,EPIC
ENDOATTNTASK,7 DVA,75,460,>,VALID 80%,Yellow,7,J,J,CORRECT,890,Draft,EPIC
ENDOATTNTASK,7 DVA,76,359,<,VALID 80%,Yellow,-7,J,J,CORRECT,1141,Draft,EPIC
ENDOATTNTASK,7 DVA,77,379,>,VALID 80%,Yellow,7,J,J,CORRECT,621,Draft,EPIC
ENDOATTNTASK,7 DVA,78,425,+,NEUTRAL 50%,Red,-7,F,F,CORRECT,1075,Draft,EPIC
ENDOATTNTASK,7 DVA,79,425,>,INVALID 20%,Red,-7,F,F,CORRECT,1075,Draft,EPIC
ENDOATTNTASK,7 DVA,80,340,<,VALID 80%,Blue,-7,F,F,CORRECT,1110,Draft,EPIC
ENDOATTNTASK,7 DVA,81,443,<,VALID 80%,Green,-7,J,J,CORRECT,757,Draft,EPIC
ENDOATTNTASK,7 DVA,82,436,>,INVALID 20%,Yellow,-7,J,J,CORRECT,514,Draft,EPIC
ENDOATTNTASK,7 DVA,83,436,>,VALID 80%,Blue,7,F,F,CORRECT,864,Draft,EPIC
ENDOATTNTASK,7 DVA,84,431,+,NEUTRAL 50%,Blue,7,F,F,CORRECT,1119,Draft,EPIC
ENDOATTNTASK,7 DVA,85,451,+,NEUTRAL 50%,Blue,7,F,F,CORRECT,1199,Draft,EPIC
ENDOATTNTASK,7 DVA,86,327,<,VALID 80%,Red,-7,F,F,CORRECT,723,Draft,EPIC
ENDOATTNTASK,7 DVA,87,547,+,NEUTRAL 50%,Green,7,J,J,CORRECT,703,Draft,EPIC
ENDOATTNTASK,7 DVA,88,340,+,NEUTRAL 50%,Yellow,-7,J,J,CORRECT,1260,Draft,EPIC
ENDOATTNTASK,7 DVA,89,357,<,VALID 80%,Yellow,-7,J,J,CORRECT,593,Draft,EPIC
ENDOATTNTASK,7 DVA,90,441,<,INVALID 20%,Green,7,J,J,CORRECT,1259,Draft,EPIC
ENDOATTNTASK,7 DVA,91,460,<,VALID 80%,Blue,-7,F,F,CORRECT,1240,Draft,EPIC
ENDOATTNTASK,7 DVA,92,535,<,INVALID 20%,Yellow,7,J,J,CORRECT,1265,Draft,EPIC
ENDOATTNTASK,7 DVA,93,368,<,VALID 80%,Green,-7,J,J,CORRECT,632,Draft,EPIC
ENDOATTNTASK,7 DVA,94,365,<,VALID 80%,Green,-7,J,J,CORRECT,735,Draft,EPIC
ENDOATTNTASK,7 DVA,95,444,<,VALID 80%,Blue,-7,F,F,CORRECT,1056,Draft,EPIC
ENDOATTNTASK,7 DVA,96,475,>,VALID 80%,Yellow,7,J,J,CORRECT,1025,Draft,EPIC
ENDOATTNTASK,7 DVA,97,328,+,NEUTRAL 50%,Green,-7,J,J,CORRECT,872,Draft,EPIC
ENDOATTNTASK,7 DVA,98,530,>,INVALID 20%,Red,-7,F,F,CORRECT,1170,Draft,EPIC
ENDOATTNTASK,7 DVA,99,360,>,VALID 80%,Blue,7,F,F,CORRECT,1240,Draft,EPIC
ENDOATTNTASK,7 DVA,100,363,<,VALID 80%,Red,-7,F,F,CORRECT,1187,Draft,EPIC
ENDOATTNTASK,7 DVA,101,360,+,NEUTRAL 50%,Blue,-7,F,F,CORRECT,990,Draft,EPIC
ENDOATTNTASK,7 DVA,102,351,<,VALID 80%,Blue,-7,F,F,CORRECT,1299,Draft,EPIC
ENDOATTNTASK,7 DVA,103,337,<,VALID 80%,Blue,-7,F,F,CORRECT,763,Draft,EPIC
ENDOATTNTASK,7 DVA,104,470,<,VALID 80%,Green,-7,J,J,CORRECT,830,Draft,EPIC
ENDOATTNTASK,7 DVA,105,460,>,VALID 80%,Red,7,F,F,CORRECT,1090,Draft,EPIC
ENDOATTNTASK,7 DVA,106,339,<,VALID 80%,Blue,-7,F,F,CORRECT,1111,Draft,EPIC
ENDOATTNTASK,7 DVA,107,367,>,VALID 80%,Red,7,F,F,CORRECT,933,Draft,EPIC
ENDOATTNTASK,7 DVA,108,414,+,NEUTRAL 50%,Red,7,F,F,CORRECT,636,Draft,EPIC
ENDOATTNTASK,7 DVA,109,556,<,INVALID 20%,Yellow,7,J,J,CORRECT,894,Draft,EPIC
ENDOATTNTASK,7 DVA,110,461,>,VALID 80%,Red,7,F,F,CORRECT,639,Draft,EPIC
ENDOATTNTASK,7 DVA,111,370,>,VALID 80%,Blue,7,F,F,CORRECT,680,Draft,EPIC
ENDOATTNTASK,7 DVA,112,436,>,VALID 80%,Green,7,J,J,CORRECT,514,Draft,EPIC
ENDOATTNTASK,7 DVA,113,351,>,VALID 80%,Green,7,J,J,CORRECT,799,Draft,EPIC
ENDOATTNTASK,7 DVA,114,371,>,VALID 80%,Green,7,J,J,CORRECT,1029,Draft,EPIC
ENDOATTNTASK,7 DVA,115,513,<,INVALID 20%,Red,7,F,F,CORRECT,637,Draft,EPIC
ENDOATTNTASK,7 DVA,116,440,+,NEUTRAL 50%,Blue,7,F,F,CORRECT,960,Draft,EPIC
ENDOATTNTASK,7 DVA,117,368,<,VALID 80%,Red,-7,F,F,CORRECT,782,Draft,EPIC
ENDOATTNTASK,7 DVA,118,425,<,INVALID 20%,Red,7,F,F,CORRECT,1225,Draft,EPIC
ENDOATTNTASK,7 DVA,119,434,>,VALID 80%,Yellow,7,J,J,CORRECT,866,Draft,EPIC
ENDOATTNTASK,7 DVA,120,359,<,VALID 80%,Yellow,-7,J,J,CORRECT,1291,Draft,EPIC
ENDOATTNTASK,7 DVA,121,331,>,VALID 80%,Yellow,7,J,J,CORRECT,1269,Draft,EPIC
ENDOATTNTASK,7 DVA,122,526,+,NEUTRAL 50%,Red,7,F,F,CORRECT,1074,Draft,EPIC
ENDOATTNTASK,7 DVA,123,344,>,VALID 80%,Red,7,F,F,CORRECT,1206,Draft,EPIC
ENDOATTNTASK,7 DVA,124,550,+,NEUTRAL 50%,Yellow,7,J,J,CORRECT,1150,Draft,EPIC
ENDOATTNTASK,7 DVA,125,456,>,VALID 80%,Blue,7,F,F,CORRECT,1294,Draft,EPIC
ENDOATTNTASK,7 DVA,126,373,>,VALID 80%,Blue,7,F,F,CORRECT,1177,Draft,EPIC
ENDOATTNTASK,7 DVA,127,463,>,VALID 80%,Green,7,J,J,CORRECT,737,Draft,EPIC
ENDOATTNTASK,7 DVA,128,362,+,NEUTRAL 50%,Yellow,-7,J,J,CORRECT,1188,Draft,EPIC
ENDOATTNTASK,7 DVA,129,431,<,VALID 80%,Blue,-7,F,F,CORRECT,819,Draft,EPIC
ENDOATTNTASK,7 DVA,130,353,+,NEUTRAL 50%,Blue,-7,F,F,CORRECT,1247,Draft,EPIC
ENDOATTNTASK,7 DVA,131,444,+,NEUTRAL 50%,Blue,7,F,F,CORRECT,806,Draft,EPIC
ENDOATTNTASK,7 DVA,132,449,>,INVALID 20%,Red,-7,F,F,CORRECT,951,Draft,EPIC
ENDOATTNTASK,7 DVA,133,359,>,VALID 80%,Blue,7,F,F,CORRECT,791,Draft,EPIC
ENDOATTNTASK,7 DVA,134,340,<,VALID 80%,Red,-7,F,F,CORRECT,760,Draft,EPIC
ENDOATTNTASK,7 DVA,135,324,+,NEUTRAL 50%,Red,-7,F,F,CORRECT,926,Draft,EPIC
ENDOATTNTASK,7 DVA,136,437,>,INVALID 20%,Blue,-7,F,F,CORRECT,963,Draft,EPIC
ENDOATTNTASK,7 DVA,137,330,<,VALID 80%,Blue,-7,F,F,CORRECT,520,Draft,EPIC
ENDOATTNTASK,7 DVA,138,455,>,VALID 80%,Green,7,J,J,CORRECT,595,Draft,EPIC
ENDOATTNTASK,7 DVA,139,470,>,VALID 80%,Blue,7,F,F,CORRECT,530,Draft,EPIC
ENDOATTNTASK,7 DVA,140,430,<,VALID 80%,Green,-7,J,J,CORRECT,620,Draft,EPIC
ENDOATTNTASK,7 DVA,141,362,<,VALID 80%,Yellow,-7,J,J,CORRECT,1138,Draft,EPIC
ENDOATTNTASK,7 DVA,142,471,>,VALID 80%,Blue,7,F,F,CORRECT,1079,Draft,EPIC
ENDOATTNTASK,7 DVA,143,450,>,INVALID 20%,Blue,-7,F,F,CORRECT,750,Draft,EPIC
ENDOATTNTASK,7 DVA,144,441,+,NEUTRAL 50%,Green,-7,J,J,CORRECT,659,Draft,EPIC
ENDOATTNTASK,7 DVA,145,446,>,INVALID 20%,Yellow,-7,J,J,CORRECT,804,Draft,EPIC
ENDOATTNTASK,7 DVA,146,452,>,VALID 80%,Blue,7,F,F,CORRECT,998,Draft,EPIC
ENDOATTNTASK,7 DVA,147,459,<,VALID 80%,Green,-7,J,J,CORRECT,791,Draft,EPIC
ENDOATTNTASK,7 DVA,148,540,+,NEUTRAL 50%,Red,7,F,F,CORRECT,760,Draft,EPIC
ENDOATTNTASK,7 DVA,149,474,>,VALID 80%,Yellow,7,J,J,CORRECT,1076,Draft,EPIC
ENDOATTNTASK,7 DVA,150,337,+,NEUTRAL 50%,Green,-7,J,J,CORRECT,713,Draft,EPIC
ENDOATTNTASK,7 DVA,151,514,+,NEUTRAL 50%,Red,7,F,F,CORRECT,536,Draft,EPIC
ENDOATTNTASK,7 DVA,152,434,<,VALID 80%,Yellow,-7,J,J,CORRECT,1266,Draft,EPIC
ENDOATTNTASK,7 DVA,153,344,<,VALID 80%,Green,-7,J,J,CORRECT,656,Draft,EPIC
ENDOATTNTASK,7 DVA,154,434,>,VALID 80%,Blue,7,F,F,CORRECT,766,Draft,EPIC
ENDOATTNTASK,7 DVA,155,343,>,VALID 80%,Blue,7,F,F,CORRECT,557,Draft,EPIC
ENDOATTNTASK,7 DVA,156,340,>,VALID 80%,Blue,7,F,F,CORRECT,560,Draft,EPIC
ENDOATTNTASK,7 DVA,157,440,<,VALID 80%,Green,-7,J,J,CORRECT,1260,Draft,EPIC
ENDOATTNTASK,7 DVA,158,522,>,INVALID 20%,Blue,-7,F,F,CORRECT,978,Draft,EPIC
ENDOATTNTASK,7 DVA,159,440,>,VALID 80%,Green,7,J,J,CORRECT,760,Draft,EPIC
ENDOATTNTASK,7 DVA,160,359,<,VALID 80%,Yellow,-7,J,J,CORRECT,1191,Draft,EPIC
ENDOATTNTASK,7 DVA,161,457,<,VALID 80%,Blue,-7,F,F,CORRECT,893,Draft,EPIC
ENDOATTNTASK,7 DVA,162,448,>,INVALID 20%,Blue,-7,F,F,CORRECT,602,Draft,EPIC
ENDOATTNTASK,7 DVA,163,363,+,NEUTRAL 50%,Blue,-7,F,F,CORRECT,687,Draft,EPIC
ENDOATTNTASK,7 DVA,164,515,<,INVALID 20%,Yellow,7,J,J,CORRECT,685,Draft,EPIC
ENDOATTNTASK,7 DVA,165,445,>,VALID 80%,Blue,7,F,F,CORRECT,855,Draft,EPIC
ENDOATTNTASK,7 DVA,166,471,>,VALID 80%,Green,7,J,J,CORRECT,979,Draft,EPIC
ENDOATTNTASK,7 DVA,167,331,>,VALID 80%,Green,7,J,J,CORRECT,869,Draft,EPIC
ENDOATTNTASK,7 DVA,168,454,<,VALID 80%,Red,-7,F,F,CORRECT,1046,Draft,EPIC
ENDOATTNTASK,7 DVA,169,447,<,VALID 80%,Green,-7,J,J,CORRECT,803,Draft,EPIC
ENDOATTNTASK,7 DVA,170,427,>,INVALID 20%,Yellow,-7,J,J,CORRECT,973,Draft,EPIC
ENDOATTNTASK,7 DVA,171,424,<,INVALID 20%,Yellow,7,J,J,CORRECT,626,Draft,EPIC
ENDOATTNTASK,7 DVA,172,469,+,NEUTRAL 50%,Red,-7,F,F,CORRECT,531,Draft,EPIC
ENDOATTNTASK,7 DVA,173,325,+,NEUTRAL 50%,Blue,-7,F,F,CORRECT,775,Draft,EPIC
ENDOATTNTASK,7 DVA,174,452,+,NEUTRAL 50%,Blue,7,F,F,CORRECT,548,Draft,EPIC
ENDOATTNTASK,7 DVA,175,442,+,NEUTRAL 50%,Blue,7,F,F,CORRECT,1058,Draft,EPIC
ENDOATTNTASK,7 DVA,176,511,<,INVALID 20%,Green,7,J,J,CORRECT,639,Draft,EPIC
ENDOATTNTASK,7 DVA,177,444,+,NEUTRAL 50%,Red,-7,F,F,CORRECT,1106,Draft,EPIC
ENDOATTNTASK,7 DVA,178,466,>,VALID 80%,Yellow,7,J,J,CORRECT,1034,Draft,EPIC
ENDOATTNTASK,7 DVA,179,323,<,VALID 80%,Yellow,-7,J,J,CORRECT,927,Draft,EPIC
ENDOATTNTASK,7 DVA,180,451,+,NEUTRAL 50%,Green,7,J,J,CORRECT,699,Draft,EPIC
ENDOATTNTASK,7 DVA,181,519,<,INVALID 20%,Blue,7,F,F,CORRECT,1231,Draft,EPIC
ENDOATTNTASK,7 DVA,182,456,+,NEUTRAL 50%,Blue,7,F,F,CORRECT,544,Draft,EPIC
ENDOATTNTASK,7 DVA,183,428,<,VALID 80%,Yellow,-7,J,J,CORRECT,1022,Draft,EPIC
ENDOATTNTASK,7 DVA,184,518,+,NEUTRAL 50%,Blue,7,F,F,CORRECT,1282,Draft,EPIC
ENDOATTNTASK,7 DVA,185,340,<,VALID 80%,Red,-7,F,F,CORRECT,760,Draft,EPIC
ENDOATTNTASK,7 DVA,186,365,>,VALID 80%,Red,7,F,F,CORRECT,1035,Draft,EPIC
ENDOATTNTASK,7 DVA,187,458,+,NEUTRAL 50%,Blue,7,F,F,CORRECT,842,Draft,EPIC
ENDOATTNTASK,7 DVA,188,436,<,VALID 80%,Yellow,-7,J,J,CORRECT,914,Draft,EPIC
ENDOATTNTASK,7 DVA,189,357,>,VALID 80%,Yellow,7,J,J,CORRECT,843,Draft,EPIC
ENDOATTNTASK,7 DVA,190,350,<,VALID 80%,Yellow,-7,J,J,CORRECT,800,Draft,EPIC
ENDOATTNTASK,7 DVA,191,364,>,VALID 80%,Green,7,J,J,CORRECT,686,Draft,EPIC
ENDOATTNTASK,7 DVA,192,424,>,INVALID 20%,Yellow,-7,J,J,CORRECT,626,Draft,EPIC
ENDOATTNTASK,7 DVA,193,540,<,INVALID 20%,Blue,7,F,F,CORRECT,560,Draft,EPIC
ENDOATTNTASK,7 DVA,194,446,<,INVALID 20%,Blue,7,F,F,CORRECT,554,Draft,EPIC
ENDOATTNTASK,7 DVA,195,333,+,NEUTRAL 50%,Red,-7,F,F,CORRECT,1117,Draft,EPIC
ENDOATTNTASK,7 DVA,196,371,>,VALID 80%,Red,7,F,F,CORRECT,1179,Draft,EPIC
ENDOATTNTASK,7 DVA,197,422,<,VALID 80%,Green,-7,J,J,CORRECT,928,Draft,EPIC
ENDOATTNTASK,7 DVA,198,469,>,VALID 80%,Red,7,F,F,CORRECT,1031,Draft,EPIC
ENDOATTNTASK,7 DVA,199,558,+,NEUTRAL 50%,Yellow,7,J,J,CORRECT,542,Draft,EPIC
ENDOATTNTASK,7 DVA,200,451,+,NEUTRAL 50%,Yellow,7,J,J,CORRECT,899,Draft,EPIC
ENDOATTNTASK,7 DVA,1,518,<,VALID 80%,Red,-7,F,F,CORRECT,806,Draft,EPIC
ENDOATTNTASK,7 DVA,2,332,<,VALID 80%,Red,-7,F,F,CORRECT,1218,Draft,EPIC
ENDOATTNTASK,7 DVA,3,364,+,NEUTRAL 50%,Blue,-7,F,F,CORRECT,586,Draft,EPIC
ENDOATTNTASK,7 DVA,4,543,>,INVALID 20%,Yellow,-7,J,J,CORRECT,957,Draft,EPIC
ENDOATTNTASK,7 DVA,5,515,+,NEUTRAL 50%,Blue,7,F,F,CORRECT,735,Draft,EPIC
ENDOATTNTASK,7 DVA,6,510,<,INVALID 20%,Green,7,J,J,CORRECT,840,Draft,EPIC
ENDOATTNTASK,7 DVA,7,359,+,NEUTRAL 50%,Yellow,-7,J,J,CORRECT,791,Draft,EPIC
ENDOATTNTASK,7 DVA,8,424,<,INVALID 20%,Yellow,7,J,J,CORRECT,526,Draft,EPIC
ENDOATTNTASK,7 DVA,9,356,<,VALID 80%,Yellow,-7,J,J,CORRECT,794,Draft,EPIC
ENDOATTNTASK,7 DVA,10,447,+,NEUTRAL 50%,Red,-7,F,F,CORRECT,653,Draft,EPIC
ENDOATTNTASK,7 DVA,11,441,+,NEUTRAL 50%,Red,7,F,F,CORRECT,1259,Draft,EPIC
ENDOATTNTASK,7 DVA,12,368,+,NEUTRAL 50%,Blue,-7,F,F,CORRECT,1032,Draft,EPIC
ENDOATTNTASK,7 DVA,13,474,>,VALID 80%,Yellow,7,J,J,CORRECT,676,Draft,EPIC
ENDOATTNTASK,7 DVA,14,533,+,NEUTRAL 50%,Red,7,F,F,CORRECT,967,Draft,EPIC
ENDOATTNTASK,7 DVA,15,333,>,VALID 80%,Blue,7,F,F,CORRECT,617,Draft,EPIC
ENDOATTNTASK,7 DVA,16,525,>,INVALID 20%,Yellow,-7,J,J,CORRECT,925,Draft,EPIC
ENDOATTNTASK,7 DVA,17,421,+,NEUTRAL 50%,Yellow,7,J,J,CORRECT,1079,Draft,EPIC
ENDOATTNTASK,7 DVA,18,445,<,VALID 80%,Red,-7,F,F,CORRECT,955,Draft,EPIC
ENDOATTNTASK,7 DVA,19,354,>,VALID 80%,Red,7,F,F,CORRECT,796,Draft,EPIC
ENDOATTNTASK,7 DVA,20,351,<,VALID 80%,Blue,-7,F,F,CORRECT,1149,Draft,EPIC
ENDOATTNTASK,7 DVA,21,534,<,INVALID 20%,Yellow,7,J,J,CORRECT,966,Draft,EPIC
ENDOATTNTASK,7 DVA,22,449,<,INVALID 20%,Yellow,7,J,J,CORRECT,501,Draft,EPIC
ENDOATTNTASK,7 DVA,23,513,+,NEUTRAL 50%,Blue,7,F,F,CORRECT,837,Draft,EPIC
ENDOATTNTASK,7 DVA,24,457,<,VALID 80%,Yellow,-7,J,J,CORRECT,1143,Draft,EPIC
ENDOATTNTASK,7 DVA,25,332,>,VALID 80%,Yellow,7,J,J,CORRECT,568,Draft,EPIC
ENDOATTNTASK,7 DVA,26,358,+,NEUTRAL 50%,Green,-7,J,J,CORRECT,792,Draft,EPIC
ENDOATTNTASK,7 DVA,27,544,+,NEUTRAL 50%,Red,7,F,F,CORRECT,1006,Draft,EPIC
ENDOATTNTASK,7 DVA,28,357,<,VALID 80%,Blue,-7,F,F,CORRECT,843,Draft,EPIC
ENDOATTNTASK,7 DVA,29,321,<,VALID 80%,Blue,-7,F,F,CORRECT,579,Draft,EPIC
ENDOATTNTASK,7 DVA,30,526,+,NEUTRAL 50%,Green,7,J,J,CORRECT,974,Draft,EPIC
ENDOATTNTASK,7 DVA,31,533,+,NEUTRAL 50%,Red,7,F,F,CORRECT,817,Draft,EPIC
ENDOATTNTASK,7 DVA,32,367,+,NEUTRAL 50%,Blue,-7,F,F,CORRECT,1183,Draft,EPIC
ENDOATTNTASK,7 DVA,33,419,+,NEUTRAL 50%,Red,7,F,F,CORRECT,731,Draft,EPIC
ENDOATTNTASK,7 DVA,34,457,+,NEUTRAL 50%,Yellow,-7,J,J,CORRECT,1093,Draft,EPIC
ENDOATTNTASK,7 DVA,35,431,+,NEUTRAL 50%,Green,7,J,J,CORRECT,1269,Draft,EPIC
ENDOATTNTASK,7 DVA,36,326,+,NEUTRAL 50%,Yellow,-7,J,J,CORRECT,824,Draft,EPIC
ENDOATTNTASK,7 DVA,37,362,>,VALID 80%,Green,7,J,J,CORRECT,1088,Draft,EPIC
ENDOATTNTASK,7 DVA,38,414,+,NEUTRAL 50%,Yellow,7,J,J,CORRECT,1136,Draft,EPIC
ENDOATTNTASK,7 DVA,39,556,<,INVALID 20%,Red,7,F,F,CORRECT,1094,Draft,EPIC
ENDOATTNTASK,7 DVA,40,516,+,NEUTRAL 50%,Yellow,7,J,J,CORRECT,784,Draft,EPIC
ENDOATTNTASK,7 DVA,41,466,<,VALID 80%,Red,-7,F,F,CORRECT,584,Draft,EPIC
ENDOATTNTASK,7 DVA,42,463,>,INVALID 20%,Red,-7,F,F,CORRECT,887,Draft,EPIC
ENDOATTNTASK,7 DVA,43,350,<,VALID 80%,Blue,-7,F,F,CORRECT,1100,Draft,EPIC
ENDOATTNTASK,7 DVA,44,447,+,NEUTRAL 50%,Green,-7,J,J,CORRECT,803,Draft,EPIC
ENDOATTNTASK,7 DVA,45,531,>,INVALID 20%,Red,-7,F,F,CORRECT,1069,Draft,EPIC
ENDOATTNTASK,7 DVA,46,460,>,VALID 80%,Green,7,J,J,CORRECT,1140,Draft,EPIC
ENDOATTNTASK,7 DVA,47,470,>,VALID 80%,Red,7,F,F,CORRECT,1230,Draft,EPIC
ENDOATTNTASK,7 DVA,48,429,<,VALID 80%,Green,-7,J,J,CORRECT,1121,Draft,EPIC
ENDOATTNTASK,7 DVA,49,455,>,VALID 80%,Blue,7,F,F,CORRECT,795,Draft,EPIC
ENDOATTNTASK,7 DVA,50,443,>,VALID 80%,Green,7,J,J,CORRECT,1257,Draft,EPIC
ENDOATTNTASK,7 DVA,51,453,+,NEUTRAL 50%,Blue,-7,F,F,CORRECT,1047,Draft,EPIC
ENDOATTNTASK,7 DVA,52,434,+,NEUTRAL 50%,Yellow,-7,J,J,CORRECT,1216,Draft,EPIC
ENDOATTNTASK,7 DVA,53,344,>,VALID 80%,Yellow,7,J,J,CORRECT,706,Draft,EPIC
ENDOATTNTASK,7 DVA,54,519,+,NEUTRAL 50%,Red,7,F,F,CORRECT,1131,Draft,EPIC
ENDOATTNTASK,7 DVA,55,510,+,NEUTRAL 50%,Green,7,J,J,CORRECT,840,Draft,EPIC
ENDOATTNTASK,7 DVA,56,352,<,VALID 80%,Yellow,-7,J,J,CORRECT,948,Draft,EPIC
ENDOATTNTASK,7 DVA,57,541,+,NEUTRAL 50%,Red,7,F,F,CORRECT,509,Draft,EPIC
ENDOATTNTASK,7 DVA,58,512,+,NEUTRAL 50%,Yellow,7,J,J,CORRECT,638,Draft,EPIC
ENDOATTNTASK,7 DVA,59,449,<,VALID 80%,Blue,-7,F,F,CORRECT,951,Draft,EPIC
ENDOATTNTASK,7 DVA,60,464,>,VALID 80%,Green,7,J,J,CORRECT,886,Draft,EPIC
ENDOATTNTASK,7 DVA,61,447,<,VALID 80%,Red,-7,F,F,CORRECT,503,Draft,EPIC
ENDOATTNTASK,7 DVA,62,435,>,VALID 80%,Yellow,7,J,J,CORRECT,815,Draft,EPIC
ENDOATTNTASK,7 DVA,63,475,>,VALID 80%,Red,7,F,F,CORRECT,1275,Draft,EPIC
ENDOATTNTASK,7 DVA,64,332,+,NEUTRAL 50%,Red,-7,F,F,CORRECT,918,Draft,EPIC
ENDOATTNTASK,7 DVA,65,558,>,INVALID 20%,Green,-7,J,J,CORRECT,792,Draft,EPIC
ENDOATTNTASK,7 DVA,66,334,<,VALID 80%,Green,-7,J,J,CORRECT,816,Draft,EPIC
ENDOATTNTASK,7 DVA,67,432,<,VALID 80%,Blue,-7,F,F,CORRECT,918,Draft,EPIC
ENDOATTNTASK,7 DVA,68,460,+,NEUTRAL 50%,Yellow,-7,J,J,CORRECT,1090,Draft,EPIC
ENDOATTNTASK,7 DVA,69,364,>,VALID 80%,Green,7,J,J,CORRECT,986,Draft,EPIC
ENDOATTNTASK,7 DVA,70,430,>,VALID 80%,Red,7,F,F,CORRECT,520,Draft,EPIC
ENDOATTNTASK,7 DVA,71,513,<,INVALID 20%,Yellow,7,J,J,CORRECT,1137,Draft,EPIC
ENDOATTNTASK,7 DVA,72,324,<,VALID 80%,Yellow,-7,J,J,CORRECT,1026,Draft,EPIC
ENDOATTNTASK,7 DVA,73,463,>,VALID 80%,Red,7,F,F,CORRECT,637,Draft,EPIC
ENDOATTNTASK,7 DVA,74,444,+,NEUTRAL 50%,Blue,7,F,F,CORRECT,806,Draft,EPIC
ENDOATTNTASK,7 DVA,75,361,<,VALID 80%,Red,-7,F,F,CORRECT,739,Draft,EPIC
ENDOATTNTASK,7 DVA,76,436,<,VALID 80%,Yellow,-7,J,J,CORRECT,1114,Draft,EPIC
ENDOATTNTASK,7 DVA,77,436,+,NEUTRAL 50%,Yellow,7,J,J,CORRECT,1214,Draft,EPIC
ENDOATTNTASK,7 DVA,78,365,+,NEUTRAL 50%,Green,-7,J,J,CORRECT,1235,Draft,EPIC
ENDOATTNTASK,7 DVA,79,530,<,INVALID 20%,Red,7,F,F,CORRECT,1170,Draft,EPIC
ENDOATTNTASK,7 DVA,80,459,<,VALID 80%,Green,-7,J,J,CORRECT,1241,Draft,EPIC
ENDOATTNTASK,7 DVA,81,417,+,NEUTRAL 50%,Green,7,J,J,CORRECT,1033,Draft,EPIC
ENDOATTNTASK,7 DVA,82,434,+,NEUTRAL 50%,Yellow,7,J,J,CORRECT,1116,Draft,EPIC
ENDOATTNTASK,7 DVA,83,350,<,VALID 80%,Yellow,-7,J,J,CORRECT,1000,Draft,EPIC
ENDOATTNTASK,7 DVA,84,469,+,NEUTRAL 50%,Blue,-7,F,F,CORRECT,1081,Draft,EPIC
ENDOATTNTASK,7 DVA,85,539,+,NEUTRAL 50%,Yellow,7,J,J,CORRECT,1111,Draft,EPIC
ENDOATTNTASK,7 DVA,86,470,>,VALID 80%,Blue,7,F,F,CORRECT,630,Draft,EPIC
ENDOATTNTASK,7 DVA,87,556,<,INVALID 20%,Green,7,J,J,CORRECT,694,Draft,EPIC
ENDOATTNTASK,7 DVA,88,424,<,VALID 80%,Red,-7,F,F,CORRECT,1026,Draft,EPIC
ENDOATTNTASK,7 DVA,89,321,+,NEUTRAL 50%,Red,-7,F,F,CORRECT,1029,Draft,EPIC
ENDOATTNTASK,7 DVA,90,424,+,NEUTRAL 50%,Blue,7,F,F,CORRECT,1226,Draft,EPIC
ENDOATTNTASK,7 DVA,91,457,+,NEUTRAL 50%,Red,7,F,F,CORRECT,1143,Draft,EPIC
ENDOATTNTASK,7 DVA,92,378,>,VALID 80%,Blue,7,F,F,CORRECT,1222,Draft,EPIC
ENDOATTNTASK,7 DVA,93,358,<,VALID 80%,Red,-7,F,F,CORRECT,892,Draft,EPIC
ENDOATTNTASK,7 DVA,94,461,+,NEUTRAL 50%,Yellow,-7,J,J,CORRECT,1139,Draft,EPIC
ENDOATTNTASK,7 DVA,95,462,>,VALID 80%,Red,7,F,F,CORRECT,1238,Draft,EPIC
ENDOATTNTASK,7 DVA,96,424,<,VALID 80%,Yellow,-7,J,J,CORRECT,526,Draft,EPIC
ENDOATTNTASK,7 DVA,97,441,<,VALID 80%,Red,-7,F,F,CORRECT,1109,Draft,EPIC
ENDOATTNTASK,7 DVA,98,462,>,VALID 80%,Yellow,7,J,J,CORRECT,1088,Draft,EPIC
ENDOATTNTASK,7 DVA,99,334,>,VALID 80%,Yellow,7,J,J,CORRECT,616,Draft,EPIC
ENDOATTNTASK,7 DVA,100,426,<,INVALID 20%,Yellow,7,J,J,CORRECT,624,Draft,EPIC
ENDOATTNTASK,7 DVA,101,427,<,VALID 80%,Blue,-7,F,F,CORRECT,573,Draft,EPIC
ENDOATTNTASK,7 DVA,102,460,<,VALID 80%,Yellow,-7,J,J,CORRECT,690,Draft,EPIC
ENDOATTNTASK,7 DVA,103,426,+,NEUTRAL 50%,Blue,-7,F,F,CORRECT,624,Draft,EPIC
ENDOATTNTASK,7 DVA,104,324,<,VALID 80%,Blue,-7,F,F,CORRECT,826,Draft,EPIC
ENDOATTNTASK,7 DVA,105,475,>,VALID 80%,Green,7,J,J,CORRECT,975,Draft,EPIC
ENDOATTNTASK,7 DVA,106,374,>,VALID 80%,Yellow,7,J,J,CORRECT,676,Draft,EPIC
ENDOATTNTASK,7 DVA,107,464,>,INVALID 20%,Yellow,-7,J,J,CORRECT,1286,Draft,EPIC
ENDOATTNTASK,7 DVA,108,437,<,VALID 80%,Red,-7,F,F,CORRECT,1213,Draft,EPIC
ENDOATTNTASK,7 DVA,109,440,<,INVALID 20%,Blue,7,F,F,CORRECT,1160,Draft,EPIC
ENDOATTNTASK,7 DVA,110,354,>,VALID 80%,Blue,7,F,F,CORRECT,596,Draft,EPIC
ENDOATTNTASK,7 DVA,111,353,+,NEUTRAL 50%,Red,-7,F,F,CORRECT,1297,Draft,EPIC
ENDOATTNTASK,7 DVA,112,360,>,VALID 80%,Red,7,F,F,CORRECT,1040,Draft,EPIC
ENDOATTNTASK,7 DVA,113,343,<,VALID 80%,Red,-7,F,F,CORRECT,1007,Draft,EPIC
ENDOATTNTASK,7 DVA,114,464,+,NEUTRAL 50%,Yellow,-7,J,J,CORRECT,836,Draft,EPIC
ENDOATTNTASK,7 DVA,115,455,>,VALID 80%,Red,7,F,F,CORRECT,995,Draft,EPIC
ENDOATTNTASK,7 DVA,116,477,>,VALID 80%,Yellow,7,J,J,CORRECT,673,Draft,EPIC
ENDOATTNTASK,7 DVA,117,361,>,VALID 80%,Yellow,7,J,J,CORRECT,1189,Draft,EPIC
ENDOATTNTASK,7 DVA,118,430,<,VALID 80%,Red,-7,F,F,CORRECT,1120,Draft,EPIC
ENDOATTNTASK,7 DVA,119,345,<,VALID 80%,Red,-7,F,F,CORRECT,655,Draft,EPIC
ENDOATTNTASK,7 DVA,120,446,+,NEUTRAL 50%,Green,-7,J,J,CORRECT,704,Draft,EPIC
ENDOATTNTASK,7 DVA,121,544,<,INVALID 20%,Red,7,F,F,CORRECT,1006,Draft,EPIC
ENDOATTNTASK,7 DVA,122,436,<,INVALID 20%,Blue,7,F,F,CORRECT,1064,Draft,EPIC
ENDOATTNTASK,7 DVA,123,327,<,VALID 80%,Blue,-7,F,F,CORRECT,523,Draft,EPIC
ENDOATTNTASK,7 DVA,124,547,+,NEUTRAL 50%,Green,7,J,J,CORRECT,603,Draft,EPIC
ENDOATTNTASK,7 DVA,125,522,<,INVALID 20%,Blue,7,F,F,CORRECT,628,Draft,EPIC
ENDOATTNTASK,7 DVA,126,349,>,VALID 80%,Red,7,F,F,CORRECT,901,Draft,EPIC
ENDOATTNTASK,7 DVA,127,557,<,INVALID 20%,Yellow,7,J,J,CORRECT,893,Draft,EPIC
ENDOATTNTASK,7 DVA,128,414,+,NEUTRAL 50%,Yellow,7,J,J,CORRECT,636,Draft,EPIC
ENDOATTNTASK,7 DVA,129,434,+,NEUTRAL 50%,Green,7,J,J,CORRECT,816,Draft,EPIC
ENDOATTNTASK,7 DVA,130,523,<,INVALID 20%,Red,7,F,F,CORRECT,1127,Draft,EPIC
ENDOATTNTASK,7 DVA,131,467,<,VALID 80%,Green,-7,J,J,CORRECT,1033,Draft,EPIC
ENDOATTNTASK,7 DVA,132,551,+,NEUTRAL 50%,Blue,7,F,F,CORRECT,699,Draft,EPIC
ENDOATTNTASK,7 DVA,133,424,+,NEUTRAL 50%,Red,7,F,F,CORRECT,926,Draft,EPIC
ENDOATTNTASK,7 DVA,134,346,<,VALID 80%,Blue,-7,F,F,CORRECT,704,Draft,EPIC
ENDOATTNTASK,7 DVA,135,357,>,VALID 80%,Blue,7,F,F,CORRECT,593,Draft,EPIC
ENDOATTNTASK,7 DVA,136,363,<,VALID 80%,Blue,-7,F,F,CORRECT,1037,Draft,EPIC
ENDOATTNTASK,7 DVA,137,453,+,NEUTRAL 50%,Yellow,-7,J,J,CORRECT,897,Draft,EPIC
ENDOATTNTASK,7 DVA,138,350,<,VALID 80%,Green,-7,J,J,CORRECT,1200,Draft,EPIC
ENDOATTNTASK,7 DVA,139,359,+,NEUTRAL 50%,Green,-7,J,J,CORRECT,1141,Draft,EPIC
ENDOATTNTASK,7 DVA,140,509,+,NEUTRAL 50%,Blue,7,F,F,CORRECT,941,Draft,EPIC
ENDOATTNTASK,7 DVA,141,452,<,VALID 80%,Yellow,-7,J,J,CORRECT,698,Draft,EPIC
ENDOATTNTASK,7 DVA,142,375,>,VALID 80%,Yellow,7,J,J,CORRECT,675,Draft,EPIC
ENDOATTNTASK,7 DVA,143,411,+,NEUTRAL 50%,Green,7,J,J,CORRECT,789,Draft,EPIC
ENDOATTNTASK,7 DVA,144,432,<,VALID 80%,Blue,-7,F,F,CORRECT,1068,Draft,EPIC
ENDOATTNTASK,7 DVA,145,330,+,NEUTRAL 50%,Red,-7,F,F,CORRECT,1170,Draft,EPIC
ENDOATTNTASK,7 DVA,146,519,>,INVALID 20%,Green,-7,J,J,CORRECT,931,Draft,EPIC
ENDOATTNTASK,7 DVA,147,513,+,NEUTRAL 50%,Blue,7,F,F,CORRECT,737,Draft,EPIC
ENDOATTNTASK,7 DVA,148,428,+,NEUTRAL 50%,Blue,7,F,F,CORRECT,572,Draft,EPIC
ENDOATTNTASK,7 DVA,149,435,+,NEUTRAL 50%,Red,7,F,F,CORRECT,515,Draft,EPIC
ENDOATTNTASK,7 DVA,150,453,<,VALID 80%,Green,-7,J,J,CORRECT,897,Draft,EPIC
ENDOATTNTASK,7 DVA,151,458,<,VALID 80%,Blue,-7,F,F,CORRECT,1292,Draft,EPIC
ENDOATTNTASK,7 DVA,152,452,<,VALID 80%,Yellow,-7,J,J,CORRECT,548,Draft,EPIC
ENDOATTNTASK,7 DVA,153,474,>,VALID 80%,Red,7,F,F,CORRECT,1126,Draft,EPIC
ENDOATTNTASK,7 DVA,154,533,>,INVALID 20%,Green,-7,J,J,CORRECT,767,Draft,EPIC
ENDOATTNTASK,7 DVA,155,438,>,INVALID 20%,Yellow,-7,J,J,CORRECT,962,Draft,EPIC
ENDOATTNTASK,7 DVA,156,350,+,NEUTRAL 50%,Yellow,-7,J,J,CORRECT,1250,Draft,EPIC
ENDOATTNTASK,7 DVA,157,333,+,NEUTRAL 50%,Green,-7,J,J,CORRECT,1017,Draft,EPIC
ENDOATTNTASK,7 DVA,158,342,>,VALID 80%,Yellow,7,J,J,CORRECT,508,Draft,EPIC
ENDOATTNTASK,7 DVA,159,429,<,INVALID 20%,Yellow,7,J,J,CORRECT,1171,Draft,EPIC
ENDOATTNTASK,7 DVA,160,530,<,INVALID 20%,Red,7,F,F,CORRECT,670,Draft,EPIC
ENDOATTNTASK,7 DVA,161,448,<,VALID 80%,Green,-7,J,J,CORRECT,1152,Draft,EPIC
ENDOATTNTASK,7 DVA,162,422,<,VALID 80%,Red,-7,F,F,CORRECT,678,Draft,EPIC
ENDOATTNTASK,7 DVA,163,362,>,VALID 80%,Red,7,F,F,CORRECT,1238,Draft,EPIC
ENDOATTNTASK,7 DVA,164,352,>,VALID 80%,Red,7,F,F,CORRECT,1098,Draft,EPIC
ENDOATTNTASK,7 DVA,165,441,<,VALID 80%,Yellow,-7,J,J,CORRECT,1009,Draft,EPIC
ENDOATTNTASK,7 DVA,166,337,>,VALID 80%,Green,7,J,J,CORRECT,1013,Draft,EPIC
ENDOATTNTASK,7 DVA,167,440,+,NEUTRAL 50%,Red,-7,F,F,CORRECT,510,Draft,EPIC
ENDOATTNTASK,7 DVA,168,514,+,NEUTRAL 50%,Yellow,7,J,J,CORRECT,1036,Draft,EPIC
ENDOATTNTASK,7 DVA,169,537,>,INVALID 20%,Red,-7,F,F,CORRECT,963,Draft,EPIC
ENDOATTNTASK,7 DVA,170,427,+,NEUTRAL 50%,Green,-7,J,J,CORRECT,923,Draft,EPIC
ENDOATTNTASK,7 DVA,171,456,+,NEUTRAL 50%,Green,7,J,J,CORRECT,1194,Draft,EPIC
ENDOATTNTASK,7 DVA,172,428,+,NEUTRAL 50%,Red,-7,F,F,CORRECT,822,Draft,EPIC
ENDOATTNTASK,7 DVA,173,453,>,INVALID 20%,Red,-7,F,F,CORRECT,947,Draft,EPIC
ENDOATTNTASK,7 DVA,174,443,>,VALID 80%,Yellow,7,J,J,CORRECT,907,Draft,EPIC
ENDOATTNTASK,7 DVA,175,539,<,INVALID 20%,Red,7,F,F,CORRECT,661,Draft,EPIC
ENDOATTNTASK,7 DVA,176,451,<,VALID 80%,Green,-7,J,J,CORRECT,999,Draft,EPIC
ENDOATTNTASK,7 DVA,177,444,+,NEUTRAL 50%,Red,-7,F,F,CORRECT,656,Draft,EPIC
ENDOATTNTASK,7 DVA,178,441,<,INVALID 20%,Blue,7,F,F,CORRECT,1059,Draft,EPIC
ENDOATTNTASK,7 DVA,179,419,>,INVALID 20%,Red,-7,F,F,CORRECT,931,Draft,EPIC
ENDOATTNTASK,7 DVA,180,335,<,VALID 80%,Blue,-7,F,F,CORRECT,1215,Draft,EPIC
ENDOATTNTASK,7 DVA,181,378,>,VALID 80%,Blue,7,F,F,CORRECT,622,Draft,EPIC
ENDOATTNTASK,7 DVA,182,513,+,NEUTRAL 50%,Yellow,7,J,J,CORRECT,537,Draft,EPIC
ENDOATTNTASK,7 DVA,183,525,+,NEUTRAL 50%,Blue,7,F,F,CORRECT,1275,Draft,EPIC
ENDOATTNTASK,7 DVA,184,322,+,NEUTRAL 50%,Blue,-7,F,F,CORRECT,1178,Draft,EPIC
ENDOATTNTASK,7 DVA,185,436,>,VALID 80%,Yellow,7,J,J,CORRECT,864,Draft,EPIC
ENDOATTNTASK,7 DVA,186,362,>,VALID 80%,Yellow,7,J,J,CORRECT,588,Draft,EPIC
ENDOATTNTASK,7 DVA,187,350,>,VALID 80%,Green,7,J,J,CORRECT,800,Draft,EPIC
ENDOATTNTASK,7 DVA,188,342,>,VALID 80%,Yellow,7,J,J,CORRECT,708,Draft,EPIC
ENDOATTNTASK,7 DVA,189,457,<,VALID 80%,Blue,-7,F,F,CORRECT,643,Draft,EPIC
ENDOATTNTASK,7 DVA,190,524,+,NEUTRAL 50%,Green,7,J,J,CORRECT,876,Draft,EPIC
ENDOATTNTASK,7 DVA,191,470,+,NEUTRAL 50%,Red,-7,F,F,CORRECT,880,Draft,EPIC
ENDOATTNTASK,7 DVA,192,355,+,NEUTRAL 50%,Red,-7,F,F,CORRECT,595,Draft,EPIC
ENDOATTNTASK,7 DVA,193,323,<,VALID 80%,Red,-7,F,F,CORRECT,777,Draft,EPIC
ENDOATTNTASK,7 DVA,194,418,+,NEUTRAL 50%,Red,7,F,F,CORRECT,632,Draft,EPIC
ENDOATTNTASK,7 DVA,195,445,>,VALID 80%,Yellow,7,J,J,CORRECT,655,Draft,EPIC
ENDOATTNTASK,7 DVA,196,459,<,VALID 80%,Blue,-7,F,F,CORRECT,1241,Draft,EPIC
ENDOATTNTASK,7 DVA,197,465,<,VALID 80%,Green,-7,J,J,CORRECT,1235,Draft,EPIC
ENDOATTNTASK,7 DVA,198,450,+,NEUTRAL 50%,Blue,-7,F,F,CORRECT,1100,Draft,EPIC
ENDOATTNTASK,7 DVA,199,540,+,NEUTRAL 50%,Green,7,J,J,CORRECT,710,Draft,EPIC
ENDOATTNTASK,7 DVA,200,453,>,INVALID 20%,Yellow,-7,J,J,CORRECT,1147,Draft,EPIC
ENDOATTNTASK,7 DVA,1,487,>,VALID 80%,Yellow,7,J,J,CORRECT,1187,Draft,EPIC
ENDOATTNTASK,7 DVA,2,345,<,VALID 80%,Green,-7,J,J,CORRECT,1105,Draft,EPIC
ENDOATTNTASK,7 DVA,3,330,>,VALID 80%,Yellow,7,J,J,CORRECT,920,Draft,EPIC
ENDOATTNTASK,7 DVA,4,346,<,VALID 80%,Green,-7,J,J,CORRECT,554,Draft,EPIC
ENDOATTNTASK,7 DVA,5,478,>,VALID 80%,Red,7,F,F,CORRECT,772,Draft,EPIC
ENDOATTNTASK,7 DVA,6,340,<,VALID 80%,Red,-7,F,F,CORRECT,860,Draft,EPIC
ENDOATTNTASK,7 DVA,7,427,+,NEUTRAL 50%,Yellow,-7,J,J,CORRECT,973,Draft,EPIC
ENDOATTNTASK,7 DVA,8,430,>,VALID 80%,Blue,7,F,F,CORRECT,620,Draft,EPIC
ENDOATTNTASK,7 DVA,9,472,>,VALID 80%,Yellow,7,J,J,CORRECT,928,Draft,EPIC
ENDOATTNTASK,7 DVA,10,527,>,INVALID 20%,Red,-7,F,F,CORRECT,673,Draft,EPIC
ENDOATTNTASK,7 DVA,11,425,<,VALID 80%,Yellow,-7,J,J,CORRECT,675,Draft,EPIC
ENDOATTNTASK,7 DVA,12,350,+,NEUTRAL 50%,Green,-7,J,J,CORRECT,1100,Draft,EPIC
ENDOATTNTASK,7 DVA,13,356,+,NEUTRAL 50%,Yellow,-7,J,J,CORRECT,694,Draft,EPIC
ENDOATTNTASK,7 DVA,14,523,+,NEUTRAL 50%,Blue,7,F,F,CORRECT,1277,Draft,EPIC
ENDOATTNTASK,7 DVA,15,473,>,VALID 80%,Yellow,7,J,J,CORRECT,1027,Draft,EPIC
ENDOATTNTASK,7 DVA,16,425,+,NEUTRAL 50%,Green,7,J,J,CORRECT,825,Draft,EPIC
ENDOATTNTASK,7 DVA,17,358,>,VALID 80%,Green,7,J,J,CORRECT,592,Draft,EPIC
ENDOATTNTASK,7 DVA,18,339,>,VALID 80%,Green,7,J,J,CORRECT,711,Draft,EPIC
ENDOATTNTASK,7 DVA,19,432,+,NEUTRAL 50%,Blue,-7,F,F,CORRECT,1068,Draft,EPIC
ENDOATTNTASK,7 DVA,20,544,+,NEUTRAL 50%,Green,7,J,J,CORRECT,706,Draft,EPIC
ENDOATTNTASK,7 DVA,21,444,>,VALID 80%,Red,7,F,F,CORRECT,1156,Draft,EPIC
ENDOATTNTASK,7 DVA,22,431,+,NEUTRAL 50%,Green,-7,J,J,CORRECT,1069,Draft,EPIC
ENDOATTNTASK,7 DVA,23,376,>,VALID 80%,Yellow,7,J,J,CORRECT,824,Draft,EPIC
ENDOATTNTASK,7 DVA,24,376,>,VALID 80%,Yellow,7,J,J,CORRECT,824,Draft,EPIC
ENDOATTNTASK,7 DVA,25,558,+,NEUTRAL 50%,Red,7,F,F,CORRECT,642,Draft,EPIC
ENDOATTNTASK,7 DVA,26,343,<,VALID 80%,Blue,-7,F,F,CORRECT,1057,Draft,EPIC
ENDOATTNTASK,7 DVA,27,453,>,VALID 80%,Green,7,J,J,CORRECT,1247,Draft,EPIC
ENDOATTNTASK,7 DVA,28,359,+,NEUTRAL 50%,Yellow,-7,J,J,CORRECT,941,Draft,EPIC
ENDOATTNTASK,7 DVA,29,437,<,VALID 80%,Red,-7,F,F,CORRECT,663,Draft,EPIC
ENDOATTNTASK,7 DVA,30,364,<,VALID 80%,Blue,-7,F,F,CORRECT,836,Draft,EPIC
ENDOATTNTASK,7 DVA,31,470,+,NEUTRAL 50%,Yellow,-7,J,J,CORRECT,1180,Draft,EPIC
ENDOATTNTASK,7 DVA,32,363,>,VALID 80%,Yellow,7,J,J,CORRECT,1187,Draft,EPIC
ENDOATTNTASK,7 DVA,33,523,+,NEUTRAL 50%,Blue,7,F,F,CORRECT,827,Draft,EPIC
ENDOATTNTASK,7 DVA,34,529,+,NEUTRAL 50%,Yellow,7,J,J,CORRECT,821,Draft,EPIC
ENDOATTNTASK,7 DVA,35,545,+,NEUTRAL 50%,Blue,7,F,F,CORRECT,1255,Draft,EPIC
ENDOATTNTASK,7 DVA,36,556,+,NEUTRAL 50%,Yellow,7,J,J,CORRECT,794,Draft,EPIC
ENDOATTNTASK,7 DVA,37,438,>,VALID 80%,Red,7,F,F,CORRECT,762,Draft,EPIC
ENDOATTNTASK,7 DVA,38,460,>,VALID 80%,Green,7,J,J,CORRECT,1190,Draft,EPIC
ENDOATTNTASK,7 DVA,39,346,+,NEUTRAL 50%,Yellow,-7,J,J,CORRECT,1254,Draft,EPIC
ENDOATTNTASK,7 DVA,40,466,<,VALID 80%,Red,-7,F,F,CORRECT,684,Draft,EPIC
ENDOATTNTASK,7 DVA,41,458,+,NEUTRAL 50%,Yellow,-7,J,J,CORRECT,792,Draft,EPIC
ENDOATTNTASK,7 DVA,42,463,<,VALID 80%,Blue,-7,F,F,CORRECT,537,Draft,EPIC
ENDOATTNTASK,7 DVA,43,431,>,VALID 80%,Green,7,J,J,CORRECT,969,Draft,EPIC
ENDOATTNTASK,7 DVA,44,429,<,VALID 80%,Red,-7,F,F,CORRECT,871,Draft,EPIC
ENDOATTNTASK,7 DVA,45,420,+,NEUTRAL 50%,Blue,7,F,F,CORRECT,530,Draft,EPIC
ENDOATTNTASK,7 DVA,46,452,+,NEUTRAL 50%,Red,7,F,F,CORRECT,548,Draft,EPIC
ENDOATTNTASK,7 DVA,47,424,+,NEUTRAL 50%,Green,-7,J,J,CORRECT,876,Draft,EPIC
ENDOATTNTASK,7 DVA,48,465,>,VALID 80%,Blue,7,F,F,CORRECT,635,Draft,EPIC
ENDOATTNTASK,7 DVA,49,357,>,VALID 80%,Red,7,F,F,CORRECT,693,Draft,EPIC
ENDOATTNTASK,7 DVA,50,449,>,VALID 80%,Yellow,7,J,J,CORRECT,501,Draft,EPIC
ENDOATTNTASK,7 DVA,51,345,+,NEUTRAL 50%,Yellow,-7,J,J,CORRECT,1005,Draft,EPIC
ENDOATTNTASK,7 DVA,52,347,<,VALID 80%,Green,-7,J,J,CORRECT,1153,Draft,EPIC
ENDOATTNTASK,7 DVA,53,421,+,NEUTRAL 50%,Red,-7,F,F,CORRECT,1179,Draft,EPIC
ENDOATTNTASK,7 DVA,54,377,>,VALID 80%,Blue,7,F,F,CORRECT,673,Draft,EPIC
ENDOATTNTASK,7 DVA,55,361,<,VALID 80%,Red,-7,F,F,CORRECT,789,Draft,EPIC
ENDOATTNTASK,7 DVA,56,416,+,NEUTRAL 50%,Blue,7,F,F,CORRECT,784,Draft,EPIC
ENDOATTNTASK,7 DVA,57,521,>,INVALID 20%,Green,-7,J,J,CORRECT,1179,Draft,EPIC
ENDOATTNTASK,7 DVA,58,351,<,VALID 80%,Yellow,-7,J,J,CORRECT,1049,Draft,EPIC
ENDOATTNTASK,7 DVA,59,342,>,VALID 80%,Green,7,J,J,CORRECT,1108,Draft,EPIC
ENDOATTNTASK,7 DVA,60,441,>,VALID 80%,Red,7,F,F,CORRECT,1059,Draft,EPIC
ENDOATTNTASK,7 DVA,61,341,>,VALID 80%,Blue,7,F,F,CORRECT,509,Draft,EPIC
ENDOATTNTASK,7 DVA,62,511,+,NEUTRAL 50%,Green,7,J,J,CORRECT,589,Draft,EPIC
ENDOATTNTASK,7 DVA,63,521,<,INVALID 20%,Blue,7,F,F,CORRECT,1179,Draft,EPIC
ENDOATTNTASK,7 DVA,64,454,>,VALID 80%,Yellow,7,J,J,CORRECT,1146,Draft,EPIC
ENDOATTNTASK,7 DVA,65,452,+,NEUTRAL 50%,Yellow,7,J,J,CORRECT,1298,Draft,EPIC
ENDOATTNTASK,7 DVA,66,475,>,VALID 80%,Red,7,F,F,CORRECT,525,Draft,EPIC
ENDOATTNTASK,7 DVA,67,374,>,VALID 80%,Blue,7,F,F,CORRECT,776,Draft,EPIC
ENDOATTNTASK,7 DVA,68,324,<,VALID 80%,Blue,-7,F,F,CORRECT,1026,Draft,EPIC
ENDOATTNTASK,7 DVA,69,459,+,NEUTRAL 50%,Green,-7,J,J,CORRECT,1291,Draft,EPIC
ENDOATTNTASK,7 DVA,70,348,+,NEUTRAL 50%,Yellow,-7,J,J,CORRECT,602,Draft,EPIC
ENDOATTNTASK,7 DVA,71,536,>,INVALID 20%,Blue,-7,F,F,CORRECT,964,Draft,EPIC
ENDOATTNTASK,7 DVA,72,339,>,VALID 80%,Blue,7,F,F,CORRECT,861,Draft,EPIC
ENDOATTNTASK,7 DVA,73,464,+,NEUTRAL 50%,Green,-7,J,J,CORRECT,1136,Draft,EPIC
ENDOATTNTASK,7 DVA,74,523,+,NEUTRAL 50%,Red,7,F,F,CORRECT,977,Draft,EPIC
ENDOATTNTASK,7 DVA,75,447,+,NEUTRAL 50%,Red,7,F,F,CORRECT,1053,Draft,EPIC
ENDOATTNTASK,7 DVA,76,360,>,VALID 80%,Red,7,F,F,CORRECT,790,Draft,EPIC
ENDOATTNTASK,7 DVA,77,532,+,NEUTRAL 50%,Yellow,7,J,J,CORRECT,818,Draft,EPIC
ENDOATTNTASK,7 DVA,78,348,<,VALID 80%,Green,-7,J,J,CORRECT,802,Draft,EPIC
ENDOATTNTASK,7 DVA,79,450,+,NEUTRAL 50%,Red,-7,F,F,CORRECT,650,Draft,EPIC
ENDOATTNTASK,7 DVA,80,524,<,INVALID 20%,Green,7,J,J,CORRECT,676,Draft,EPIC
ENDOATTNTASK,7 DVA,81,449,<,VALID 80%,Blue,-7,F,F,CORRECT,1001,Draft,EPIC
ENDOATTNTASK,7 DVA,82,364,>,VALID 80%,Red,7,F,F,CORRECT,736,Draft,EPIC
ENDOATTNTASK,7 DVA,83,345,+,NEUTRAL 50%,Blue,-7,F,F,CORRECT,1255,Draft,EPIC
ENDOATTNTASK,7 DVA,84,349,>,VALID 80%,Blue,7,F,F,CORRECT,851,Draft,EPIC
ENDOATTNTASK,7 DVA,85,536,>,INVALID 20%,Green,-7,J,J,CORRECT,1264,Draft,EPIC
ENDOATTNTASK,7 DVA,86,354,>,VALID 80%,Green,7,J,J,CORRECT,846,Draft,EPIC
ENDOATTNTASK,7 DVA,87,328,<,VALID 80%,Yellow,-7,J,J,CORRECT,1072,Draft,EPIC
ENDOATTNTASK,7 DVA,88,349,<,VALID 80%,Yellow,-7,J,J,CORRECT,951,Draft,EPIC
ENDOATTNTASK,7 DVA,89,427,>,INVALID 20%,Yellow,-7,J,J,CORRECT,523,Draft,EPIC
ENDOATTNTASK,7 DVA,90,349,<,VALID 80%,Green,-7,J,J,CORRECT,1251,Draft,EPIC
ENDOATTNTASK,7 DVA,91,456,>,VALID 80%,Red,7,F,F,CORRECT,1144,Draft,EPIC
ENDOATTNTASK,7 DVA,92,344,+,NEUTRAL 50%,Red,-7,F,F,CORRECT,906,Draft,EPIC
ENDOATTNTASK,7 DVA,93,363,<,VALID 80%,Red,-7,F,F,CORRECT,737,Draft,EPIC
ENDOATTNTASK,7 DVA,94,321,<,VALID 80%,Red,-7,F,F,CORRECT,729,Draft,EPIC
ENDOATTNTASK,7 DVA,95,440,<,VALID 80%,Green,-7,J,J,CORRECT,860,Draft,EPIC
ENDOATTNTASK,7 DVA,96,515,+,NEUTRAL 50%,Blue,7,F,F,CORRECT,1185,Draft,EPIC
ENDOATTNTASK,7 DVA,97,457,>,VALID 80%,Yellow,7,J,J,CORRECT,543,Draft,EPIC
ENDOATTNTASK,7 DVA,98,454,<,VALID 80%,Red,-7,F,F,CORRECT,546,Draft,EPIC
ENDOATTNTASK,7 DVA,99,468,>,VALID 80%,Green,7,J,J,CORRECT,582,Draft,EPIC
ENDOATTNTASK,7 DVA,100,367,<,VALID 80%,Green,-7,J,J,CORRECT,1283,Draft,EPIC
ENDOATTNTASK,7 DVA,101,431,>,VALID 80%,Blue,7,F,F,CORRECT,819,Draft,EPIC
ENDOATTNTASK,7 DVA,102,529,+,NEUTRAL 50%,Green,7,J,J,CORRECT,871,Draft,EPIC
ENDOATTNTASK,7 DVA,103,359,<,VALID 80%,Green,-7,J,J,CORRECT,941,Draft,EPIC
ENDOATTNTASK,7 DVA,104,337,<,VALID 80%,Green,-7,J,J,CORRECT,1063,Draft,EPIC
ENDOATTNTASK,7 DVA,105,523,<,INVALID 20%,Blue,7,F,F,CORRECT,1277,Draft,EPIC
ENDOATTNTASK,7 DVA,106,443,<,VALID 80%,Green,-7,J,J,CORRECT,507,Draft,EPIC
ENDOATTNTASK,7 DVA,107,351,<,VALID 80%,Yellow,-7,J,J,CORRECT,899,Draft,EPIC
ENDOATTNTASK,7 DVA,108,457,<,VALID 80%,Red,-7,F,F,CORRECT,1243,Draft,EPIC
ENDOATTNTASK,7 DVA,109,430,>,VALID 80%,Green,7,J,J,CORRECT,920,Draft,EPIC
ENDOATTNTASK,7 DVA,110,352,<,VALID 80%,Green,-7,J,J,CORRECT,598,Draft,EPIC
ENDOATTNTASK,7 DVA,111,356,<,VALID 80%,Green,-7,J,J,CORRECT,1244,Draft,EPIC
ENDOATTNTASK,7 DVA,112,478,>,VALID 80%,Red,7,F,F,CORRECT,522,Draft,EPIC
ENDOATTNTASK,7 DVA,113,324,+,NEUTRAL 50%,Red,-7,F,F,CORRECT,676,Draft,EPIC
ENDOATTNTASK,7 DVA,114,523,+,NEUTRAL 50%,Green,7,J,J,CORRECT,677,Draft,EPIC
ENDOATTNTASK,7 DVA,115,413,+,NEUTRAL 50%,Yellow,7,J,J,CORRECT,1287,Draft,EPIC
ENDOATTNTASK,7 DVA,116,434,<,INVALID 20%,Yellow,7,J,J,CORRECT,1266,Draft,EPIC
ENDOATTNTASK,7 DVA,117,465,+,NEUTRAL 50%,Red,-7,F,F,CORRECT,685,Draft,EPIC
ENDOATTNTASK,7 DVA,118,326,+,NEUTRAL 50%,Blue,-7,F,F,CORRECT,974,Draft,EPIC
ENDOATTNTASK,7 DVA,119,363,>,VALID 80%,Red,7,F,F,CORRECT,1187,Draft,EPIC
ENDOATTNTASK,7 DVA,120,337,>,VALID 80%,Blue,7,F,F,CORRECT,713,Draft,EPIC
ENDOATTNTASK,7 DVA,121,342,>,VALID 80%,Red,7,F,F,CORRECT,958,Draft,EPIC
ENDOATTNTASK,7 DVA,122,424,<,VALID 80%,Green,-7,J,J,CORRECT,726,Draft,EPIC
ENDOATTNTASK,7 DVA,123,442,<,VALID 80%,Blue,-7,F,F,CORRECT,958,Draft,EPIC
ENDOATTNTASK,7 DVA,124,568,>,INVALID 20%,Green,-7,J,J,CORRECT,932,Draft,EPIC
ENDOATTNTASK,7 DVA,125,551,>,INVALID 20%,Red,-7,F,F,CORRECT,599,Draft,EPIC
ENDOATTNTASK,7 DVA,126,466,>,VALID 80%,Green,7,J,J,CORRECT,934,Draft,EPIC
ENDOATTNTASK,7 DVA,127,515,<,INVALID 20%,Blue,7,F,F,CORRECT,635,Draft,EPIC
ENDOATTNTASK,7 DVA,128,354,<,VALID 80%,Red,-7,F,F,CORRECT,696,Draft,EPIC
ENDOATTNTASK,7 DVA,129,539,+,NEUTRAL 50%,Yellow,7,J,J,CORRECT,861,Draft,EPIC
ENDOATTNTASK,7 DVA,130,455,+,NEUTRAL 50%,Blue,-7,F,F,CORRECT,1145,Draft,EPIC
ENDOATTNTASK,7 DVA,131,415,+,NEUTRAL 50%,Blue,7,F,F,CORRECT,835,Draft,EPIC
ENDOATTNTASK,7 DVA,132,470,<,VALID 80%,Yellow,-7,J,J,CORRECT,630,Draft,EPIC
ENDOATTNTASK,7 DVA,133,355,+,NEUTRAL 50%,Green,-7,J,J,CORRECT,1195,Draft,EPIC
ENDOATTNTASK,7 DVA,134,441,>,VALID 80%,Blue,7,F,F,CORRECT,1209,Draft,EPIC
ENDOATTNTASK,7 DVA,135,478,>,VALID 80%,Yellow,7,J,J,CORRECT,1272,Draft,EPIC
